File: Experiments/FZJ/MCC/raw/20240813_PMMA_DE_6mm_60Kmin_4mg_R2.txt
File Name:	PMMA_DE_6mm_60Kmin_4mg_R2.txt
Version: 8.3.7.3
Date:	13 Aug 2024
Operator:	KH
Test ID:	PMMA_DE_6mm_4mg_60K_R2
Sample ID:	PMMA_DE_6mm_4mg
Sample Mass (mg):	4.0500
Sample Cup Mass (mg):	184.2700
End Total Mass (mg):
Heating Rate (C/s):	1.0000
Combuster Temperature (C):	900.0
N2 Flow Rate (cc/min):	80.0
O2 Flow Rate (cc/min):	20.0
Calibration File:	Coeff.txt
T Correction Coefficients:	0.308739	0.0136155	0.000000000
Time Shift (s):	10.0
Pre-Test Comments:
Post-Test Comments:
Baseline Flow:	100.127
Baseline O2:	20.280
Instrument ID:
@
Time (s)	Temperature (C)	N2 Flow (cc/min)	O2 Flow (cc/min)	Total Flow (cc/min)	Oxygen (%)	HRR (W/g)	Heating Rate (C/s)	Combustor Temp (C)
0.000	75.032	80.062	19.974	100.127	20.298	-9.942	-0.049	899.945
1.000	75.072	80.059	19.974	100.084	20.256	-6.845	0.040	899.921
2.001	75.104	80.058	19.974	100.120	20.216	-3.977	0.032	899.920
3.000	75.230	80.055	19.973	100.326	20.193	-2.265	0.126	899.829
4.000	75.265	80.060	19.976	100.621	20.179	-1.118	0.035	900.013
5.000	75.435	80.058	19.975	100.801	20.172	-0.984	0.171	899.892
6.000	75.604	80.056	19.975	100.837	20.168	-3.492	0.169	899.926
7.001	75.778	80.054	19.974	100.835	20.161	-7.577	0.174	899.882
8.001	75.960	80.057	19.974	100.843	20.160	-11.415	0.182	899.851
9.000	76.226	80.057	19.973	100.862	20.161	-12.642	0.266	899.829
10.000	76.480	80.058	19.973	100.865	20.155	-11.273	0.255	899.827
11.000	76.777	80.055	19.974	100.859	20.115	-7.128	0.296	899.805
12.000	77.115	80.058	19.974	100.859	20.058	-1.812	0.338	899.840
13.001	77.465	80.055	19.974	100.982	20.016	2.451	0.350	899.848
14.000	77.943	80.056	19.973	101.320	20.006	4.216	0.478	899.823
15.000	78.475	80.058	19.974	101.660	20.011	4.878	0.532	899.801
16.001	79.049	80.057	19.975	101.773	20.014	5.350	0.574	899.799
17.000	79.706	80.057	19.975	101.711	20.019	5.649	0.657	899.757
18.001	80.404	80.056	19.973	101.634	20.048	3.973	0.698	899.744
19.001	81.145	80.059	19.973	101.575	20.053	4.285	0.741	899.771
20.001	81.948	80.061	19.973	101.505	20.077	3.174	0.803	899.746
21.001	82.755	80.059	19.972	101.432	20.083	3.384	0.807	899.749
22.001	83.617	80.055	19.975	101.360	20.094	3.008	0.862	899.705
23.000	84.489	80.058	19.974	101.307	20.106	2.481	0.873	899.671
24.000	85.388	80.058	19.973	101.261	20.111	2.531	0.899	899.709
25.001	86.337	80.056	19.973	101.215	20.120	2.651	0.948	899.729
26.000	87.244	80.059	19.974	101.171	20.128	2.466	0.908	899.674
27.001	88.189	80.058	19.974	101.122	20.134	2.256	0.944	899.735
28.001	89.257	80.052	19.976	101.069	20.136	2.144	1.070	899.659
29.000	90.176	80.059	19.974	101.032	20.154	1.005	0.918	899.711
30.001	91.247	80.054	19.973	101.010	20.151	1.492	1.072	899.542
31.001	92.203	80.058	19.972	100.980	20.157	1.242	0.956	899.652
32.001	93.175	80.060	19.973	100.928	20.158	1.346	0.972	899.560
33.000	94.261	80.056	19.974	100.883	20.159	1.376	1.086	899.584
34.000	95.282	80.056	19.974	100.865	20.166	0.929	1.021	899.597
35.001	96.288	80.061	19.972	100.869	20.169	0.874	1.006	899.622
36.001	97.292	80.060	19.974	100.852	20.176	0.523	1.004	899.601
37.001	98.418	80.058	19.977	100.833	20.177	0.440	1.126	899.694
38.001	99.419	80.058	19.974	100.817	20.183	0.167	1.002	899.573
39.001	100.539	80.055	19.975	100.802	20.176	0.906	1.119	899.478
40.000	101.579	80.059	19.974	100.795	20.182	0.694	1.040	899.498
41.000	102.622	80.057	19.974	100.790	20.188	0.228	1.043	899.513
42.001	103.671	80.059	19.974	100.780	20.187	0.351	1.049	899.563
43.001	104.765	80.057	19.975	100.761	20.187	0.396	1.094	899.467
44.000	105.828	80.057	19.974	100.760	20.187	0.527	1.063	899.431
45.001	106.884	80.055	19.975	100.755	20.188	0.523	1.056	899.462
46.001	107.983	80.055	19.973	100.739	20.192	0.340	1.099	899.393
47.001	109.025	80.058	19.974	100.716	20.190	0.580	1.043	899.451
48.001	110.127	80.057	19.974	100.717	20.195	0.202	1.101	899.448
49.001	111.098	80.058	19.973	100.719	20.200	-0.374	0.971	899.422
50.001	112.203	80.061	19.975	100.715	20.195	-0.012	1.104	899.473
51.001	113.282	80.061	19.974	100.708	20.193	0.312	1.080	899.462
52.001	114.384	80.059	19.974	100.701	20.194	0.528	1.102	899.445
53.001	115.407	80.063	19.973	100.693	20.192	0.614	1.022	899.416
54.001	116.409	80.064	19.972	100.684	20.196	0.200	1.003	899.390
55.001	117.573	80.060	19.975	100.676	20.199	-0.172	1.163	899.480
56.001	118.652	80.059	19.973	100.692	20.207	-0.718	1.080	899.349
57.000	119.711	80.061	19.974	100.705	20.205	-0.389	1.058	899.439
58.001	120.801	80.060	19.973	100.690	20.201	0.083	1.090	899.354
59.001	121.843	80.061	19.972	100.663	20.201	0.018	1.042	899.371
60.001	122.943	80.060	19.973	100.664	20.207	-0.359	1.101	899.371
61.001	124.008	80.059	19.975	100.677	20.206	-0.202	1.064	899.320
62.001	125.015	80.063	19.974	100.688	20.202	0.210	1.007	899.400
63.001	126.019	80.062	19.972	100.686	20.200	0.307	1.004	899.328
64.001	127.170	80.058	19.974	100.671	20.203	0.121	1.151	899.322
65.000	128.194	80.059	19.974	100.658	20.196	0.677	1.024	899.314
66.001	129.267	80.057	19.972	100.662	20.197	0.571	1.074	899.189
67.000	130.328	80.060	19.972	100.661	20.199	0.406	1.060	899.207
68.001	131.316	80.061	19.971	100.652	20.193	0.872	0.988	899.212
69.002	132.443	80.059	19.973	100.646	20.190	1.269	1.127	899.275
70.001	133.454	80.060	19.971	100.648	20.193	1.012	1.011	899.215
71.001	134.518	80.058	19.971	100.651	20.196	0.791	1.065	899.110
72.001	135.560	80.057	19.976	100.643	20.194	0.968	1.041	899.294
73.001	136.632	80.061	19.974	100.645	20.181	2.051	1.073	899.248
74.001	137.688	80.057	19.976	100.651	20.194	1.136	1.055	899.326
75.001	138.685	80.063	19.972	100.653	20.191	1.429	0.996	899.196
76.001	139.770	80.058	19.976	100.637	20.183	2.095	1.085	899.281
77.001	140.855	80.060	19.974	100.635	20.181	2.057	1.086	899.237
78.001	141.863	80.060	19.975	100.637	20.187	1.484	1.008	899.228
79.001	142.882	80.062	19.974	100.642	20.187	1.528	1.020	899.236
80.001	143.915	80.061	19.974	100.632	20.185	1.983	1.032	899.172
81.002	144.985	80.056	19.974	100.621	20.183	2.322	1.070	899.197
82.001	146.029	80.055	19.975	100.620	20.178	2.664	1.044	899.164
83.002	146.950	80.064	19.972	100.615	20.173	3.036	0.921	899.174
84.002	148.091	80.059	19.973	100.623	20.166	3.462	1.141	899.116
85.001	149.151	80.059	19.974	100.635	20.170	3.153	1.061	899.161
86.001	150.168	80.061	19.973	100.641	20.170	3.169	1.016	899.122
87.001	151.185	80.061	19.974	100.621	20.170	3.260	1.017	899.197
88.002	152.272	80.057	19.976	100.599	20.164	3.815	1.087	899.162
89.001	153.296	80.057	19.976	100.598	20.162	3.822	1.025	899.125
90.001	154.289	80.059	19.974	100.606	20.155	4.263	0.992	899.095
91.001	155.343	80.060	19.975	100.610	20.157	4.055	1.054	899.122
92.002	156.377	80.055	19.977	100.612	20.157	4.079	1.035	899.160
93.002	157.437	80.056	19.975	100.615	20.149	4.708	1.060	899.113
94.002	158.365	80.060	19.976	100.600	20.148	4.836	0.928	899.192
95.002	159.368	80.060	19.975	100.599	20.146	4.860	1.003	899.096
96.001	160.375	80.059	19.974	100.605	20.131	6.098	1.007	899.068
97.002	161.444	80.057	19.976	100.613	20.136	5.835	1.068	899.102
98.001	162.448	80.059	19.974	100.619	20.138	5.862	1.004	899.030
99.002	163.471	80.058	19.975	100.619	20.123	6.992	1.023	898.977
100.001	164.463	80.062	19.973	100.614	20.115	7.545	0.992	898.980
101.001	165.535	80.058	19.975	100.609	20.110	7.810	1.072	899.012
102.002	166.573	80.058	19.976	100.621	20.101	8.383	1.038	899.102
103.001	167.606	80.058	19.976	100.621	20.098	8.558	1.033	899.065
104.001	168.644	80.059	19.974	100.613	20.091	9.134	1.038	899.023
105.002	169.668	80.057	19.972	100.594	20.082	9.921	1.024	898.924
106.002	170.665	80.060	19.976	100.591	20.068	11.083	0.998	899.066
107.001	171.668	80.064	19.972	100.596	20.059	11.847	1.003	898.908
108.001	172.747	80.056	19.974	100.607	20.047	12.813	1.079	898.948
109.001	173.718	80.058	19.974	100.616	20.037	13.535	0.971	898.958
110.002	174.711	80.058	19.974	100.622	20.029	14.289	0.993	898.957
111.001	175.746	80.059	19.974	100.618	20.011	15.610	1.036	898.948
112.001	176.750	80.060	19.974	100.612	20.001	16.412	1.004	898.920
113.002	177.770	80.060	19.974	100.605	19.991	17.071	1.020	898.956
114.002	178.802	80.058	19.975	100.599	19.982	17.865	1.031	898.940
115.002	179.874	80.058	19.975	100.599	19.972	18.628	1.072	898.953
116.002	180.852	80.061	19.975	100.598	19.960	19.593	0.978	898.972
117.002	181.888	80.059	19.976	100.590	19.950	20.442	1.037	898.965
118.002	182.898	80.063	19.975	100.589	19.939	21.439	1.010	898.929
119.002	183.918	80.059	19.974	100.592	19.928	22.353	1.020	898.943
120.002	184.939	80.058	19.975	100.596	19.920	23.079	1.021	898.937
121.002	185.959	80.058	19.975	100.591	19.911	23.898	1.020	898.914
122.002	186.978	80.058	19.975	100.595	19.902	24.667	1.019	898.905
123.002	187.996	80.061	19.976	100.592	19.900	24.729	1.018	898.908
124.001	189.045	80.063	19.975	100.584	19.892	25.275	1.049	898.889
125.001	190.062	80.059	19.975	100.572	19.894	25.159	1.016	898.868
126.002	191.081	80.060	19.975	100.569	19.891	25.514	1.019	898.909
127.002	192.073	80.060	19.975	100.562	19.892	25.535	0.990	898.904
128.002	193.123	80.059	19.975	100.549	19.891	25.718	1.051	898.828
129.002	194.122	80.062	19.975	100.540	19.893	25.551	0.999	898.861
130.002	195.156	80.058	19.975	100.549	19.899	25.034	1.034	898.846
131.002	196.169	80.059	19.975	100.557	19.902	24.789	1.013	898.824
132.002	197.177	80.057	19.974	100.557	19.912	24.028	1.008	898.881
133.002	198.234	80.058	19.974	100.543	19.920	23.535	1.057	898.840
134.002	199.257	80.059	19.975	100.540	19.932	22.618	1.023	898.825
135.002	200.260	80.061	19.975	100.531	19.941	21.756	1.003	898.837
136.002	201.281	80.058	19.974	100.528	19.957	20.520	1.020	898.847
137.002	202.290	80.058	19.974	100.532	19.966	19.849	1.010	898.793
138.002	203.309	80.059	19.976	100.540	19.982	18.678	1.020	898.830
139.002	204.346	80.058	19.976	100.531	19.996	17.466	1.036	898.794
140.002	205.363	80.057	19.976	100.527	20.009	16.393	1.017	898.807
141.002	206.354	80.057	19.974	100.524	20.024	15.154	0.992	898.772
142.002	207.420	80.058	19.975	100.532	20.034	14.406	1.065	898.761
143.002	208.386	80.056	19.974	100.543	20.053	13.001	0.966	898.810
144.002	209.433	80.057	19.974	100.540	20.068	11.816	1.046	898.766
145.003	210.441	80.060	19.976	100.532	20.082	10.585	1.008	898.820
146.002	211.517	80.058	19.975	100.539	20.094	9.618	1.075	898.738
147.002	212.488	80.058	19.974	100.549	20.106	8.580	0.971	898.782
148.002	213.522	80.058	19.974	100.554	20.117	7.753	1.034	898.760
149.002	214.556	80.059	19.974	100.553	20.126	6.927	1.033	898.770
150.003	215.531	80.058	19.973	100.552	20.133	6.381	0.975	898.725
151.002	216.569	80.059	19.974	100.549	20.136	6.215	1.040	898.720
152.002	217.555	80.058	19.974	100.562	20.147	5.514	0.985	898.725
153.002	218.595	80.057	19.974	100.570	20.147	5.565	1.040	898.747
154.002	219.590	80.061	19.973	100.571	20.154	5.062	0.995	898.741
155.002	220.620	80.061	19.974	100.575	20.158	4.744	1.030	898.748
156.002	221.649	80.062	19.975	100.583	20.160	4.589	1.028	898.758
157.002	222.687	80.059	19.974	100.585	20.165	4.322	1.039	898.723
158.002	223.702	80.057	19.974	100.581	20.168	4.068	1.015	898.739
159.002	224.668	80.059	19.974	100.574	20.166	4.309	0.966	898.713
160.003	225.722	80.058	19.974	100.566	20.163	4.533	1.053	898.737
161.002	226.679	80.062	19.973	100.561	20.166	4.306	0.958	898.731
162.003	227.704	80.060	19.974	100.567	20.163	4.468	1.023	898.685
163.003	228.731	80.059	19.974	100.567	20.164	4.582	1.029	898.685
164.002	229.741	80.060	19.973	100.561	20.164	4.666	1.010	898.684
165.002	230.754	80.060	19.974	100.559	20.164	4.761	1.012	898.697
166.002	231.760	80.060	19.974	100.552	20.166	4.580	1.005	898.695
167.003	232.742	80.060	19.973	100.550	20.166	4.693	0.983	898.692
168.003	233.784	80.058	19.974	100.551	20.165	4.817	1.041	898.673
169.003	234.731	80.061	19.973	100.555	20.166	4.703	0.947	898.683
170.003	235.764	80.059	19.974	100.547	20.166	4.674	1.033	898.648
171.003	236.776	80.058	19.973	100.535	20.167	4.675	1.013	898.650
172.002	237.783	80.060	19.973	100.534	20.169	4.627	1.007	898.627
173.002	238.799	80.059	19.975	100.536	20.167	4.745	1.015	898.661
174.003	239.796	80.057	19.974	100.529	20.166	4.781	0.997	898.670
175.002	240.788	80.058	19.974	100.525	20.168	4.679	0.992	898.654
176.002	241.838	80.060	19.974	100.521	20.164	5.020	1.050	898.618
177.003	242.827	80.060	19.974	100.531	20.169	4.787	0.989	898.579
178.002	243.822	80.062	19.973	100.522	20.173	4.551	0.996	898.614
179.003	244.838	80.059	19.976	100.516	20.171	4.724	1.015	898.661
180.003	245.859	80.060	19.974	100.519	20.175	4.378	1.021	898.642
181.003	246.852	80.059	19.975	100.521	20.175	4.291	0.994	898.623
182.002	247.905	80.059	19.974	100.521	20.177	4.057	1.053	898.648
183.004	248.883	80.061	19.975	100.516	20.174	4.158	0.977	898.611
184.002	249.907	80.056	19.974	100.506	20.177	3.987	1.025	898.641
185.003	250.917	80.057	19.974	100.497	20.177	4.110	1.009	898.602
186.003	251.914	80.057	19.973	100.493	20.179	4.033	0.997	898.607
187.002	252.946	80.058	19.975	100.502	20.176	4.337	1.032	898.616
188.003	253.933	80.061	19.975	100.504	20.182	3.795	0.987	898.611
189.004	254.942	80.060	19.974	100.509	20.184	3.615	1.009	898.624
190.003	255.935	80.060	19.974	100.515	20.184	3.675	0.994	898.626
191.002	256.936	80.060	19.974	100.519	20.184	3.767	1.000	898.620
192.003	257.949	80.057	19.974	100.510	20.186	3.683	1.013	898.606
193.003	258.970	80.055	19.974	100.503	20.187	3.579	1.022	898.592
194.002	259.985	80.055	19.974	100.497	20.186	3.640	1.014	898.604
195.003	260.942	80.056	19.975	100.498	20.184	3.669	0.958	898.597
196.003	261.962	80.057	19.974	100.504	20.181	3.937	1.019	898.557
197.003	263.001	80.056	19.974	100.502	20.180	4.084	1.039	898.596
198.003	263.996	80.057	19.975	100.495	20.182	3.826	0.995	898.586
199.003	264.989	80.059	19.974	100.489	20.183	3.750	0.993	898.596
200.003	266.017	80.057	19.975	100.489	20.184	3.744	1.027	898.569
201.003	267.015	80.056	19.975	100.494	20.178	4.189	0.999	898.598
202.003	268.016	80.057	19.975	100.501	20.177	4.115	1.001	898.610
203.003	269.037	80.058	19.974	100.500	20.175	4.133	1.020	898.578
204.004	269.997	80.056	19.975	100.494	20.171	4.492	0.960	898.607
205.002	271.044	80.059	19.974	100.498	20.166	4.932	1.047	898.558
206.004	272.004	80.057	19.974	100.504	20.164	5.090	0.961	898.552
207.003	272.985	80.057	19.974	100.497	20.158	5.611	0.981	898.529
208.004	274.003	80.059	19.974	100.491	20.156	5.782	1.018	898.572
209.003	275.016	80.058	19.974	100.507	20.146	6.537	1.013	898.597
210.003	275.982	80.060	19.973	100.517	20.140	7.001	0.967	898.556
211.004	277.005	80.062	19.974	100.511	20.136	7.316	1.022	898.602
212.003	277.996	80.059	19.974	100.507	20.133	7.692	0.993	898.545
213.003	279.021	80.058	19.974	100.507	20.127	8.044	1.024	898.569
214.003	280.013	80.060	19.973	100.508	20.119	8.637	0.992	898.565
215.003	280.980	80.060	19.975	100.503	20.113	9.007	0.967	898.569
216.003	281.993	80.059	19.975	100.506	20.101	10.008	1.013	898.571
217.003	283.030	80.058	19.975	100.506	20.093	10.654	1.037	898.614
218.004	284.016	80.060	19.975	100.501	20.080	11.658	0.985	898.570
219.004	285.027	80.060	19.974	100.494	20.074	12.064	1.010	898.587
220.003	286.022	80.060	19.974	100.497	20.062	13.024	0.995	898.573
221.004	287.008	80.061	19.974	100.500	20.051	13.787	0.987	898.570
222.004	288.023	80.060	19.974	100.507	20.041	14.551	1.014	898.576
223.004	289.017	80.057	19.974	100.504	20.024	15.739	0.994	898.564
224.003	290.039	80.059	19.974	100.500	20.012	16.736	1.023	898.527
225.003	291.021	80.061	19.972	100.497	20.001	17.708	0.982	898.578
226.003	292.048	80.060	19.974	100.504	19.987	18.807	1.028	898.540
227.003	293.031	80.060	19.973	100.501	19.975	19.753	0.983	898.583
228.003	294.050	80.057	19.974	100.502	19.958	21.082	1.019	898.568
229.003	295.064	80.061	19.974	100.508	19.948	21.852	1.014	898.603
230.003	296.085	80.060	19.975	100.512	19.931	23.094	1.021	898.552
231.003	297.083	80.060	19.974	100.511	19.917	24.139	0.998	898.570
232.003	298.074	80.061	19.973	100.506	19.908	24.962	0.991	898.550
233.004	299.098	80.060	19.974	100.497	19.894	26.162	1.023	898.582
234.004	300.086	80.058	19.973	100.495	19.882	27.167	0.988	898.608
235.004	301.054	80.059	19.975	100.499	19.868	28.153	0.969	898.572
236.003	302.093	80.059	19.974	100.495	19.860	28.757	1.039	898.609
237.003	303.095	80.061	19.975	100.493	19.844	29.944	1.001	898.550
238.004	304.093	80.059	19.973	100.499	19.837	30.603	0.998	898.543
239.004	305.100	80.057	19.974	100.495	19.822	31.761	1.007	898.597
240.003	306.056	80.057	19.975	100.479	19.815	32.411	0.956	898.557
241.004	307.100	80.060	19.974	100.475	19.806	33.019	1.043	898.573
242.003	308.092	80.060	19.974	100.482	19.798	33.679	0.993	898.575
243.003	309.107	80.060	19.975	100.482	19.787	34.484	1.014	898.573
244.003	310.085	80.057	19.974	100.483	19.780	35.078	0.978	898.587
245.004	311.090	80.058	19.974	100.478	19.771	35.531	1.005	898.615
246.004	312.085	80.059	19.975	100.475	19.768	35.739	0.996	898.575
247.003	313.093	80.057	19.974	100.465	19.757	36.602	1.007	898.605
248.003	314.136	80.061	19.974	100.471	19.751	37.036	1.043	898.582
249.004	315.115	80.059	19.974	100.466	19.743	37.579	0.979	898.583
250.003	316.115	80.059	19.974	100.469	19.738	37.768	1.000	898.586
251.005	317.131	80.058	19.974	100.465	19.731	38.217	1.016	898.618
252.004	318.129	80.061	19.975	100.482	19.719	39.003	0.998	898.615
253.004	319.144	80.060	19.974	100.485	19.710	39.728	1.015	898.634
254.005	320.117	80.060	19.975	100.488	19.696	40.756	0.973	898.602
255.004	321.121	80.057	19.975	100.485	19.683	41.680	1.003	898.640
256.004	322.112	80.060	19.975	100.489	19.661	43.202	0.991	898.625
257.004	323.105	80.060	19.975	100.503	19.645	44.358	0.994	898.641
258.004	324.141	80.057	19.974	100.511	19.624	45.912	1.037	898.666
259.004	325.123	80.059	19.974	100.517	19.600	47.708	0.982	898.635
260.003	326.120	80.055	19.974	100.516	19.576	49.564	0.997	898.661
261.004	327.127	80.057	19.975	100.522	19.543	51.861	1.006	898.654
262.004	328.130	80.056	19.974	100.525	19.509	54.461	1.003	898.639
263.004	329.139	80.057	19.975	100.533	19.471	57.288	1.010	898.709
264.004	330.135	80.059	19.974	100.538	19.430	60.507	0.995	898.707
265.005	331.129	80.057	19.974	100.544	19.388	63.747	0.994	898.693
266.004	332.109	80.055	19.973	100.548	19.337	67.466	0.979	898.721
267.005	333.108	80.057	19.973	100.549	19.285	71.221	1.000	898.699
268.004	334.128	80.059	19.974	100.557	19.231	75.236	1.020	898.722
269.004	335.130	80.058	19.974	100.562	19.179	79.281	1.002	898.713
270.003	336.136	80.057	19.973	100.570	19.113	84.241	1.007	898.754
271.004	337.157	80.055	19.974	100.562	19.050	89.037	1.021	898.749
272.003	338.144	80.059	19.974	100.557	18.980	94.317	0.986	898.750
273.004	339.147	80.055	19.973	100.562	18.905	100.120	1.002	898.750
274.004	340.137	80.059	19.974	100.581	18.837	105.279	0.991	898.744
275.004	341.124	80.061	19.974	100.592	18.763	110.931	0.987	898.767
276.005	342.125	80.056	19.973	100.592	18.688	116.671	1.000	898.768
277.004	343.128	80.056	19.973	100.590	18.605	123.057	1.003	898.803
278.004	344.125	80.057	19.974	100.592	18.525	129.254	0.997	898.781
279.004	345.130	80.058	19.974	100.595	18.440	135.864	1.006	898.801
280.005	346.100	80.057	19.973	100.588	18.358	142.103	0.969	898.785
281.005	347.113	80.056	19.974	100.589	18.265	149.055	1.014	898.806
282.004	348.071	80.055	19.974	100.588	18.177	155.592	0.957	898.820
283.004	349.118	80.058	19.974	100.590	18.089	162.315	1.048	898.834
284.005	350.105	80.057	19.974	100.585	17.995	169.444	0.987	898.822
285.004	351.100	80.056	19.976	100.578	17.906	176.240	0.995	898.841
286.004	352.099	80.060	19.975	100.561	17.814	183.219	0.999	898.848
287.004	353.101	80.059	19.974	100.553	17.718	190.447	1.002	898.812
288.004	354.082	80.059	19.974	100.564	17.625	197.472	0.981	898.874
289.004	355.105	80.059	19.974	100.578	17.535	204.185	1.024	898.893
290.005	356.090	80.058	19.974	100.573	17.445	211.098	0.984	898.869
291.005	357.056	80.057	19.974	100.569	17.351	218.349	0.966	898.861
292.004	358.022	80.056	19.974	100.567	17.260	225.305	0.966	898.886
293.004	359.040	80.058	19.974	100.565	17.171	231.997	1.017	898.921
294.005	360.027	80.060	19.973	100.558	17.093	237.830	0.987	898.939
295.004	361.010	80.058	19.974	100.565	17.012	243.828	0.984	898.902
296.004	362.019	80.057	19.975	100.571	16.935	249.593	1.009	898.915
297.004	362.993	80.057	19.975	100.562	16.857	255.488	0.974	898.905
298.005	363.967	80.054	19.974	100.546	16.784	260.882	0.973	898.936
299.004	364.968	80.058	19.973	100.538	16.711	266.367	1.002	898.925
300.005	365.965	80.057	19.973	100.537	16.648	271.000	0.997	898.958
301.004	366.961	80.059	19.973	100.544	16.587	275.412	0.997	898.932
302.004	367.976	80.062	19.975	100.544	16.530	279.397	1.014	898.970
303.005	368.981	80.058	19.973	100.550	16.476	283.178	1.006	898.929
304.004	369.940	80.060	19.972	100.551	16.414	287.623	0.959	898.970
305.005	370.955	80.060	19.973	100.554	16.347	292.344	1.015	899.008
306.005	371.964	80.059	19.972	100.547	16.296	295.966	1.008	898.969
307.005	372.970	80.060	19.973	100.559	16.225	301.283	1.007	899.001
308.004	373.932	80.061	19.974	100.569	16.147	307.477	0.962	899.027
309.005	374.906	80.060	19.973	100.595	16.085	312.361	0.973	899.033
310.004	375.917	80.058	19.974	100.622	15.964	321.599	1.011	899.039
311.005	376.946	80.059	19.974	100.636	15.866	329.178	1.029	899.040
312.005	377.937	80.059	19.974	100.657	15.837	331.507	0.992	899.043
313.004	378.918	80.061	19.975	100.682	15.840	331.376	0.981	899.037
314.005	379.906	80.057	19.974	100.690	15.841	330.985	0.989	899.039
315.004	380.930	80.055	19.974	100.660	15.817	332.636	1.023	899.090
316.005	381.884	80.056	19.974	100.637	15.754	337.385	0.954	899.077
317.005	382.917	80.057	19.975	100.619	15.690	342.605	1.033	899.067
318.005	383.895	80.059	19.973	100.600	15.688	342.966	0.977	899.085
319.004	384.905	80.060	19.973	100.574	15.695	342.321	1.011	899.099
320.004	385.849	80.057	19.974	100.567	15.698	341.731	0.944	899.104
321.005	386.864	80.059	19.974	100.586	15.731	338.966	1.015	899.107
322.004	387.864	80.059	19.973	100.610	15.749	337.082	0.999	899.143
323.005	388.876	80.056	19.974	100.622	15.722	338.803	1.012	899.126
324.005	389.878	80.058	19.975	100.573	15.753	336.154	1.002	899.144
325.005	390.862	80.055	19.974	100.536	15.786	333.669	0.984	899.134
326.005	391.897	80.057	19.974	100.546	15.794	332.551	1.035	899.144
327.004	392.879	80.055	19.975	100.581	15.786	332.738	0.982	899.138
328.005	393.899	80.057	19.975	100.608	15.746	335.825	1.020	899.172
329.005	394.869	80.059	19.975	100.648	15.751	335.807	0.970	899.186
330.005	395.886	80.057	19.976	100.694	15.776	334.354	1.018	899.166
331.005	396.877	80.056	19.975	100.719	15.800	332.809	0.990	899.207
332.005	397.899	80.059	19.975	100.722	15.692	341.718	1.023	899.201
333.005	398.908	80.060	19.974	100.745	15.726	340.332	1.009	899.210
334.005	399.895	80.058	19.976	100.814	15.785	336.454	0.987	899.212
335.005	400.896	80.060	19.975	100.817	15.769	337.760	1.001	899.246
336.005	401.891	80.058	19.975	100.776	15.888	328.865	0.995	899.244
337.005	402.920	80.060	19.975	100.738	16.079	314.636	1.029	899.221
338.005	403.930	80.059	19.975	100.726	16.245	301.832	1.010	899.247
339.005	404.945	80.056	19.975	100.659	16.349	293.438	1.015	899.264
340.005	405.920	80.060	19.974	100.550	16.416	288.181	0.975	899.265
341.004	406.918	80.059	19.976	100.473	16.498	282.329	0.998	899.240
342.005	407.947	80.058	19.974	100.468	16.630	272.654	1.028	899.271
343.005	408.962	80.057	19.975	100.481	16.775	261.651	1.015	899.311
344.005	409.940	80.057	19.974	100.462	16.916	250.739	0.978	899.309
345.005	410.976	80.057	19.976	100.488	17.048	240.675	1.036	899.317
346.005	411.986	80.057	19.974	100.553	17.185	230.298	1.010	899.295
347.005	413.021	80.056	19.975	100.588	17.332	219.363	1.035	899.331
348.005	414.032	80.058	19.974	100.565	17.500	206.645	1.011	899.349
349.006	415.056	80.057	19.975	100.536	17.673	193.379	1.024	899.339
350.006	416.058	80.057	19.974	100.536	17.856	179.090	1.002	899.368
351.006	417.078	80.060	19.974	100.568	18.037	164.883	1.020	899.367
352.005	418.077	80.059	19.975	100.586	18.214	151.099	1.000	899.399
353.005	419.094	80.057	19.974	100.588	18.379	138.118	1.017	899.376
354.005	420.132	80.056	19.973	100.582	18.534	126.012	1.038	899.412
355.005	421.137	80.057	19.974	100.575	18.686	114.083	1.004	899.388
356.005	422.152	80.058	19.974	100.592	18.819	103.476	1.015	899.403
357.005	423.164	80.060	19.974	100.629	18.950	93.141	1.013	899.406
358.005	424.202	80.058	19.974	100.668	19.072	83.602	1.038	899.396
359.005	425.206	80.060	19.974	100.698	19.181	75.275	1.004	899.435
360.006	426.220	80.060	19.975	100.732	19.287	67.268	1.013	899.442
361.005	427.218	80.057	19.974	100.759	19.386	59.808	0.998	899.445
362.005	428.231	80.058	19.975	100.790	19.473	53.275	1.013	899.482
363.006	429.192	80.055	19.975	100.818	19.555	47.203	0.962	899.488
364.005	430.217	80.055	19.975	100.846	19.627	41.837	1.025	899.490
365.005	431.210	80.055	19.974	100.867	19.692	37.057	0.993	899.504
366.005	432.205	80.056	19.975	100.872	19.758	32.420	0.995	899.497
367.005	433.191	80.062	19.975	100.864	19.810	28.888	0.985	899.517
368.005	434.192	80.057	19.975	100.855	19.863	25.202	1.001	899.510
369.005	435.222	80.058	19.976	100.845	19.906	21.981	1.030	899.515
370.005	436.217	80.058	19.974	100.836	19.951	18.673	0.995	899.533
371.006	437.211	80.060	19.974	100.822	19.985	16.320	0.993	899.538
372.005	438.186	80.057	19.974	100.807	20.018	14.071	0.975	899.572
373.005	439.163	80.058	19.974	100.784	20.049	11.988	0.977	899.565
374.005	440.165	80.056	19.974	100.747	20.076	10.245	1.002	899.588
375.005	441.171	80.060	19.975	100.722	20.099	8.828	1.006	899.591
376.005	442.147	80.060	19.974	100.713	20.120	7.452	0.976	899.556
377.005	443.119	80.060	19.975	100.703	20.138	6.269	0.973	899.598
378.005	444.147	80.063	19.974	100.687	20.154	5.197	1.028	899.633
379.005	445.112	80.059	19.974	100.670	20.172	3.864	0.965	899.627
380.006	446.153	80.059	19.975	100.648	20.185	3.036	1.041	899.591
381.006	447.144	80.058	19.975	100.623	20.202	2.031	0.991	899.641
382.006	448.145	80.059	19.974	100.600	20.209	1.770	1.001	899.617
383.006	449.163	80.059	19.975	100.586	20.218	1.085	1.018	899.680
384.005	450.134	80.059	19.975	100.569	20.231	0.251	0.972	899.633
385.005	451.157	80.057	19.974	100.556	20.239	-0.269	1.023	899.655
386.006	452.116	80.059	19.975	100.552	20.250	-0.900	0.959	899.676
387.005	453.136	80.057	19.974	100.546	20.256	-1.264	1.020	899.694
388.006	454.125	80.056	19.974	100.521	20.257	-1.202	0.989	899.675
389.006	455.128	80.059	19.974	100.504	20.263	-1.681	1.003	899.732
390.006	456.118	80.059	19.974	100.498	20.270	-2.010	0.990	899.723
391.005	457.148	80.057	19.974	100.494	20.272	-2.147	1.031	899.725
392.006	458.120	80.055	19.974	100.484	20.272	-2.094	0.971	899.738
393.006	459.121	80.056	19.972	100.475	20.278	-2.439	1.001	899.735
394.006	460.142	80.057	19.973	100.463	20.279	-2.492	1.020	899.743
395.006	461.120	80.055	19.973	100.452	20.281	-2.535	0.979	899.774
396.005	462.128	80.055	19.973	100.450	20.281	-2.570	1.007	899.740
397.006	463.095	80.056	19.974	100.444	20.281	-2.519	0.968	899.793
398.006	464.123	80.058	19.974	100.440	20.286	-2.830	1.028	899.794
399.005	465.139	80.058	19.974	100.432	20.287	-2.823	1.016	899.773
400.005	466.103	80.058	19.974	100.430	20.290	-2.955	0.965	899.781
401.006	467.132	80.056	19.976	100.423	20.285	-2.487	1.028	899.790
402.005	468.123	80.057	19.975	100.413	20.287	-2.520	0.991	899.825
403.006	469.138	80.055	19.975	100.421	20.286	-2.459	1.015	899.825
404.005	470.117	80.055	19.974	100.419	20.288	-2.650	0.979	899.831
405.006	471.099	80.058	19.975	100.411	20.294	-3.091	0.982	899.819
406.006	472.116	80.057	19.975	100.403	20.291	-2.822	1.016	899.844
407.006	473.125	80.055	19.976	100.400	20.290	-2.806	1.009	899.881
408.006	474.120	80.054	19.975	100.394	20.289	-2.663	0.995	899.868
409.005	475.150	80.056	19.975	100.380	20.288	-2.462	1.031	899.848
410.006	476.103	80.056	19.973	100.383	20.288	-2.355	0.952	899.911
411.006	477.114	80.055	19.973	100.389	20.287	-2.307	1.011	899.927
412.006	478.094	80.056	19.974	100.385	20.292	-2.652	0.980	899.895
413.007	479.108	80.058	19.975	100.378	20.290	-2.533	1.015	899.925
414.006	480.115	80.056	19.975	100.388	20.289	-2.404	1.007	899.939
415.006	481.128	80.056	19.974	100.387	20.293	-2.679	1.013	899.955
416.005	482.113	80.058	19.975	100.377	20.291	-2.467	0.985	899.967
417.006	483.105	80.055	19.974	100.366	20.288	-2.365	0.992	899.986
418.006	484.109	80.056	19.974	100.372	20.292	-2.828	1.003	899.941
419.006	485.121	80.055	19.975	100.368	20.291	-2.873	1.012	900.001
420.006	486.094	80.056	19.975	100.367	20.293	-2.876	0.974	900.019
421.006	487.092	80.058	19.974	100.365	20.295	-2.969	0.998	899.984
422.006	488.094	80.060	19.975	100.363	20.289	-2.446	1.003	900.022
423.006	489.108	80.056	19.974	100.360	20.290	-2.541	1.013	900.008
424.006	490.076	80.059	19.973	100.362	20.291	-2.495	0.968	900.020
425.005	491.083	80.060	19.974	100.375	20.293	-2.611	1.008	900.019
426.006	492.067	80.056	19.973	100.387	20.295	-2.748	0.984	900.051
427.006	493.072	80.060	19.974	100.382	20.291	-2.508	1.005	900.043
428.006	494.094	80.058	19.973	100.370	20.299	-3.102	1.021	900.046
429.006	495.084	80.060	19.975	100.367	20.295	-2.653	0.990	900.047
430.007	496.077	80.058	19.975	100.370	20.293	-2.539	0.993	900.092
431.006	497.099	80.059	19.975	100.364	20.294	-2.471	1.022	900.083
432.006	498.082	80.061	19.975	100.360	20.295	-2.619	0.983	900.134
433.006	499.054	80.059	19.976	100.358	20.292	-2.388	0.972	900.105
434.006	500.077	80.058	19.974	100.363	20.296	-2.848	1.022	900.086
435.006	501.075	80.059	19.974	100.359	20.293	-2.504	0.999	900.114
436.006	502.082	80.060	19.975	100.350	20.290	-2.336	1.006	900.171
437.007	503.088	80.059	19.974	100.347	20.291	-2.407	1.008	900.156
438.006	504.090	80.058	19.973	100.347	20.297	-2.917	1.001	900.201
439.007	505.101	80.055	19.973	100.349	20.293	-2.472	1.011	900.168
440.006	506.089	80.057	19.974	100.346	20.295	-2.441	0.989	900.197
441.006	507.049	80.056	19.973	100.358	20.296	-2.449	0.960	900.188
442.006	508.048	80.053	19.974	100.354	20.294	-2.372	0.998	900.200
443.007	509.053	80.057	19.973	100.352	20.294	-2.447	1.006	900.258
444.007	510.076	80.055	19.974	100.351	20.293	-2.332	1.022	900.226
445.007	511.071	80.057	19.973	100.361	20.294	-2.356	0.995	900.270
446.006	512.062	80.055	19.974	100.352	20.294	-2.322	0.992	900.238
447.006	513.069	80.059	19.974	100.339	20.295	-2.427	1.007	900.221
448.006	514.092	80.058	19.974	100.330	20.296	-2.376	1.023	900.267
449.006	515.090	80.058	19.974	100.335	20.297	-2.501	0.999	900.265
450.007	516.069	80.058	19.975	100.343	20.298	-2.736	0.978	900.307
451.006	517.091	80.060	19.975	100.342	20.301	-3.079	1.022	900.308
452.006	518.075	80.058	19.974	100.333	20.298	-2.779	0.984	900.329
453.007	519.086	80.054	19.976	100.334	20.297	-2.492	1.010	900.350
454.006	520.092	80.058	19.975	100.336	20.298	-2.454	1.006	900.331
455.007	521.043	80.056	19.974	100.329	20.297	-2.541	0.950	900.349
456.006	522.100	80.055	19.974	100.323	20.297	-2.659	1.058	900.359
457.006	523.065	80.056	19.975	100.330	20.295	-2.719	0.965	900.394
458.006	524.066	80.057	19.974	100.347	20.298	-2.867	1.000	900.403
459.007	525.060	80.057	19.974	100.348	20.299	-2.858	0.995	900.364
460.006	526.079	80.058	19.973	100.326	20.301	-2.735	1.018	900.387
461.006	527.049	80.058	19.974	100.324	20.302	-2.805	0.970	900.411
462.006	528.089	80.059	19.974	100.327	20.302	-2.893	1.040	900.434
463.006	529.039	80.060	19.974	100.341	20.305	-3.319	0.950	900.413
464.007	530.066	80.057	19.976	100.356	20.303	-3.226	1.026	900.436
465.007	531.051	80.059	19.975	100.354	20.305	-3.337	0.985	900.456
466.007	532.020	80.057	19.975	100.345	20.304	-3.116	0.970	900.482
467.006	533.049	80.058	19.976	100.330	20.302	-2.898	1.030	900.465
468.006	534.032	80.055	19.975	100.322	20.302	-2.940	0.982	900.493
469.007	535.056	80.055	19.976	100.325	20.304	-3.237	1.024	900.512
470.007	536.052	80.060	19.976	100.340	20.302	-3.202	0.996	900.511
471.006	537.062	80.058	19.975	100.350	20.303	-3.245	1.011	900.534
472.007	538.049	80.056	19.975	100.347	20.301	-2.963	0.986	900.562
473.007	539.035	80.056	19.975	100.332	20.303	-3.007	0.986	900.523
474.006	540.051	80.057	19.974	100.332	20.301	-2.755	1.016	900.556
475.007	541.043	80.057	19.976	100.335	20.305	-3.069	0.991	900.553
476.008	542.035	80.060	19.975	100.339	20.303	-3.001	0.992	900.566
477.007	543.058	80.061	19.974	100.351	20.300	-2.888	1.023	900.560
478.007	544.030	80.060	19.974	100.355	0.000	0.000	0.972	900.551
479.006	545.045	80.059	19.974	100.341	0.000	0.000	1.015	900.591
480.007	546.028	80.059	19.975	100.331	0.000	0.000	0.982	900.625
481.007	547.029	80.061	19.975	100.329	0.000	0.000	1.002	900.609
482.007	548.051	80.056	19.974	100.329	0.000	0.000	1.021	900.629
483.008	549.045	80.059	19.974	100.327	0.000	0.000	0.995	900.646
484.007	550.035	80.057	19.973	100.341	0.000	0.000	0.989	900.640
485.008	551.043	80.060	19.974	100.343	0.000	0.000	1.008	900.686
486.007	552.060	80.059	19.974	100.338	0.000	0.000	1.018	900.673
487.008	553.020	80.057	19.974	100.332	0.000	0.000	0.959	900.673
487.508	553.542	80.057	19.974	100.324	0.000	0.000	0.987	900.649