File: Experiments/FZJ/MCC/raw/20240806_PMMA_DE_6mm_60Kmin_4mg_R1.txt
File Name:	PMMA_DE_6mm_60Kmin_4mg_R1.txt
Version: 8.3.7.3
Date:	06 Aug 2024
Operator:	KH
Test ID:	PMMA_DE_6mm_4mg_60K_R1
Sample ID:	PMMA_DE_6mm_4mg
Sample Mass (mg):	4.0200
Sample Cup Mass (mg):	182.3000
End Total Mass (mg):
Heating Rate (C/s):	1.0000
Combuster Temperature (C):	900.0
N2 Flow Rate (cc/min):	80.0
O2 Flow Rate (cc/min):	20.0
Calibration File:	Coeff.txt
T Correction Coefficients:	0.308739	0.0136155	0.000000000
Time Shift (s):	10.0
Pre-Test Comments:
Post-Test Comments:
Baseline Flow:	99.875
Baseline O2:	20.432
Instrument ID:
@
Time (s)	Temperature (C)	N2 Flow (cc/min)	O2 Flow (cc/min)	Total Flow (cc/min)	Oxygen (%)	HRR (W/g)	Heating Rate (C/s)	Combustor Temp (C)
0.000	75.140	80.058	19.997	99.875	20.411	-9.838	0.036	900.380
1.000	75.080	80.057	19.998	99.880	20.370	-7.302	-0.060	900.362
2.000	75.093	80.054	19.999	99.956	20.328	-4.257	0.013	900.354
3.000	75.146	80.057	19.999	100.153	20.297	-1.814	0.052	900.388
4.000	75.188	80.055	19.997	100.382	20.278	-0.268	0.043	900.366
5.000	75.294	80.054	19.998	100.508	20.267	-0.046	0.106	900.382
6.000	75.440	80.054	19.999	100.575	20.261	-2.576	0.146	900.369
6.999	75.626	80.057	19.998	100.636	20.259	-6.826	0.186	900.364
7.999	75.785	80.058	19.999	100.689	20.257	-10.233	0.159	900.375
9.000	76.033	80.057	19.998	100.711	20.258	-11.318	0.248	900.355
10.000	76.238	80.054	19.997	100.706	20.249	-9.974	0.206	900.357
11.000	76.524	80.055	19.997	100.697	20.218	-6.759	0.285	900.377
12.001	76.812	80.055	19.996	100.704	20.158	-1.041	0.288	900.357
13.000	77.186	80.053	19.997	100.851	20.111	3.671	0.374	900.355
14.000	77.597	80.055	19.996	101.177	20.090	6.223	0.411	900.356
15.000	78.132	80.056	19.996	101.483	20.086	7.287	0.534	900.365
16.000	78.658	80.055	19.997	101.575	20.095	7.208	0.526	900.308
17.000	79.348	80.056	19.997	101.527	20.112	6.714	0.690	900.355
18.000	80.055	80.057	19.996	101.475	20.127	6.149	0.706	900.360
19.000	80.767	80.056	19.997	101.417	20.143	5.507	0.712	900.316
20.000	81.554	80.055	19.997	101.336	20.158	4.797	0.787	900.350
21.000	82.365	80.052	19.997	101.269	20.171	4.317	0.811	900.363
22.000	83.227	80.055	19.999	101.215	20.179	4.346	0.861	900.355
23.000	84.104	80.057	19.998	101.171	20.189	4.077	0.877	900.320
24.000	84.974	80.055	19.998	101.117	20.198	3.766	0.869	900.353
25.000	85.891	80.057	19.998	101.071	20.206	3.462	0.918	900.322
25.999	86.828	80.056	19.997	101.029	20.209	3.623	0.938	900.344
27.000	87.804	80.057	19.997	100.998	20.220	3.187	0.975	900.324
28.001	88.778	80.054	19.996	100.964	20.225	3.142	0.974	900.335
29.000	89.760	80.053	19.997	100.921	20.233	2.724	0.983	900.297
30.000	90.748	80.057	19.998	100.882	20.239	2.520	0.988	900.335
31.000	91.747	80.056	19.997	100.853	20.242	2.458	0.999	900.304
32.000	92.759	80.056	19.997	100.832	20.251	2.068	1.012	900.286
33.001	93.777	80.054	19.998	100.809	20.250	2.221	1.018	900.273
34.000	94.827	80.057	19.998	100.777	20.253	2.030	1.051	900.307
35.000	95.860	80.057	19.996	100.749	20.256	1.982	1.032	900.271
36.001	96.901	80.057	19.997	100.737	20.261	1.737	1.041	900.308
37.000	97.929	80.054	19.997	100.722	20.263	1.716	1.028	900.298
38.000	98.970	80.057	19.998	100.706	20.266	1.518	1.042	900.291
39.000	100.030	80.055	19.997	100.687	20.270	1.314	1.060	900.275
40.000	101.080	80.052	19.997	100.676	20.270	1.555	1.050	900.304
41.001	102.116	80.056	19.997	100.672	20.272	1.585	1.036	900.268
42.000	103.186	80.054	19.997	100.665	20.273	1.755	1.069	900.266
43.001	104.236	80.056	19.997	100.649	20.274	1.683	1.049	900.269
44.001	105.301	80.054	19.997	100.641	20.276	1.646	1.065	900.281
45.000	106.349	80.054	19.997	100.644	20.277	1.609	1.049	900.244
46.000	107.403	80.055	19.995	100.636	20.278	1.588	1.054	900.239
47.000	108.514	80.057	19.997	100.621	20.281	1.458	1.112	900.261
48.000	109.561	80.054	19.996	100.604	20.281	1.451	1.047	900.237
49.000	110.655	80.054	19.995	100.594	20.281	1.412	1.094	900.217
50.001	111.716	80.058	19.996	100.585	20.283	1.318	1.060	900.223
51.000	112.782	80.057	19.998	100.577	20.285	1.164	1.067	900.229
52.000	113.884	80.061	19.996	100.579	20.291	1.049	1.102	900.266
53.000	114.909	80.057	19.996	100.572	20.293	0.937	1.025	900.212
54.000	115.969	80.059	19.996	100.567	20.289	1.370	1.060	900.236
55.000	117.029	80.059	19.997	100.563	20.291	1.129	1.060	900.218
56.000	118.135	80.059	19.996	100.564	20.292	0.944	1.107	900.239
57.000	119.208	80.056	19.997	100.570	20.294	0.815	1.072	900.223
58.001	120.295	80.055	19.998	100.561	20.295	0.791	1.087	900.235
59.000	121.361	80.057	19.998	100.549	20.297	0.730	1.066	900.246
60.000	122.427	80.059	19.998	100.537	20.299	0.661	1.066	900.221
61.001	123.470	80.056	19.998	100.531	20.296	0.783	1.042	900.227
62.000	124.550	80.057	19.997	100.533	20.295	0.799	1.081	900.255
63.000	125.618	80.057	19.997	100.541	20.296	0.792	1.068	900.211
64.000	126.652	80.054	19.998	100.541	20.292	1.087	1.034	900.184
65.000	127.691	80.058	19.997	100.537	20.291	1.385	1.039	900.201
66.000	128.768	80.057	19.998	100.525	20.289	1.537	1.077	900.248
67.001	129.823	80.053	19.996	100.527	20.291	1.645	1.054	900.238
68.000	130.899	80.056	19.998	100.532	20.290	1.746	1.077	900.236
69.000	131.912	80.056	19.998	100.532	20.287	1.947	1.012	900.223
70.000	132.984	80.056	19.998	100.536	20.287	1.914	1.073	900.221
71.000	134.059	80.058	19.996	100.530	20.284	2.078	1.075	900.247
72.001	135.117	80.057	19.997	100.520	20.284	2.202	1.058	900.206
73.000	136.169	80.058	19.996	100.517	20.285	2.177	1.052	900.232
74.001	137.206	80.055	19.996	100.505	20.279	2.552	1.037	900.227
75.000	138.254	80.055	19.998	100.499	20.278	2.545	1.048	900.218
76.001	139.315	80.059	19.997	100.499	20.278	2.551	1.060	900.242
77.000	140.331	80.055	19.997	100.503	20.279	2.608	1.017	900.208
78.001	141.395	80.056	19.997	100.508	20.276	3.063	1.064	900.229
79.000	142.439	80.056	19.998	100.496	20.275	3.119	1.044	900.194
80.000	143.489	80.055	19.999	100.493	20.271	3.424	1.050	900.186
81.001	144.516	80.058	19.999	100.502	20.267	3.746	1.027	900.194
82.000	145.524	80.056	19.997	100.507	20.265	4.063	1.008	900.187
83.001	146.614	80.055	19.998	100.511	20.262	4.248	1.090	900.189
84.000	147.647	80.057	19.998	100.498	20.262	4.251	1.033	900.171
85.001	148.689	80.055	19.997	100.487	20.259	4.486	1.041	900.217
86.001	149.718	80.055	20.000	100.479	20.257	4.680	1.029	900.192
87.001	150.754	80.055	19.998	100.483	20.255	4.772	1.037	900.215
88.000	151.787	80.057	19.997	100.483	20.253	4.990	1.033	900.159
89.002	152.845	80.058	19.997	100.477	20.252	5.259	1.057	900.208
90.002	153.838	80.058	19.998	100.469	20.252	5.247	0.994	900.210
91.001	154.864	80.054	19.998	100.476	20.249	5.415	1.025	900.189
92.001	155.913	80.056	19.999	100.472	20.245	5.738	1.050	900.195
93.001	156.930	80.055	19.996	100.467	20.240	6.292	1.016	900.184
94.001	157.986	80.057	19.997	100.473	20.235	6.700	1.056	900.189
95.001	158.979	80.060	19.998	100.470	20.234	6.705	0.994	900.175
96.001	160.013	80.057	19.998	100.462	20.230	7.023	1.034	900.180
97.001	161.042	80.057	20.000	100.457	20.227	7.265	1.029	900.194
98.001	162.060	80.055	19.998	100.468	20.223	7.549	1.018	900.183
99.001	163.106	80.058	19.997	100.466	20.218	7.906	1.046	900.185
100.001	164.127	80.056	19.999	100.453	20.207	8.726	1.020	900.190
101.001	165.157	80.056	19.997	100.446	20.202	9.079	1.030	900.199
102.001	166.201	80.057	19.997	100.450	20.197	9.530	1.044	900.191
103.001	167.220	80.057	19.998	100.455	20.191	10.114	1.020	900.178
104.001	168.199	80.058	19.998	100.452	20.179	10.977	0.979	900.170
105.001	169.224	80.055	19.998	100.453	20.169	11.727	1.025	900.173
106.001	170.242	80.055	19.997	100.457	20.161	12.395	1.018	900.140
107.001	171.290	80.056	19.997	100.459	20.151	13.324	1.048	900.192
108.001	172.286	80.055	19.998	100.462	20.144	13.946	0.996	900.147
109.001	173.296	80.055	19.998	100.459	20.132	14.837	1.009	900.134
110.001	174.335	80.056	19.998	100.451	20.121	15.686	1.040	900.163
111.001	175.379	80.059	19.998	100.453	20.106	16.851	1.043	900.168
112.002	176.417	80.057	19.998	100.449	20.097	17.717	1.038	900.179
113.002	177.424	80.055	19.997	100.453	20.085	18.766	1.008	900.189
114.002	178.437	80.056	19.999	100.443	20.073	19.807	1.014	900.186
115.001	179.423	80.056	19.996	100.434	20.062	20.656	0.986	900.166
116.001	180.445	80.055	19.996	100.433	20.049	21.740	1.023	900.183
117.001	181.503	80.057	19.997	100.439	20.042	22.297	1.058	900.149
118.001	182.530	80.055	19.998	100.436	20.033	23.048	1.026	900.163
119.002	183.573	80.058	19.997	100.424	20.021	23.921	1.043	900.189
120.001	184.585	80.055	19.997	100.417	20.016	24.368	1.013	900.149
121.001	185.557	80.054	19.996	100.413	20.006	25.085	0.972	900.147
122.001	186.594	80.057	19.998	100.403	19.998	25.889	1.037	900.178
123.001	187.611	80.056	19.997	100.400	19.997	26.019	1.016	900.184
124.001	188.629	80.055	19.997	100.402	19.983	27.060	1.018	900.141
125.002	189.647	80.056	19.998	100.399	19.981	27.237	1.018	900.178
126.001	190.667	80.056	19.997	100.398	19.981	27.316	1.020	900.177
127.002	191.678	80.058	19.997	100.395	19.982	27.316	1.010	900.143
128.002	192.676	80.057	19.997	100.400	19.979	27.620	0.998	900.156
129.002	193.716	80.055	19.997	100.392	19.980	27.585	1.040	900.145
130.001	194.731	80.057	19.996	100.382	19.983	27.419	1.015	900.153
131.001	195.739	80.057	19.997	100.382	19.987	27.252	1.008	900.165
132.001	196.782	80.056	19.997	100.385	19.993	26.823	1.042	900.157
133.001	197.801	80.057	19.998	100.379	20.003	26.093	1.019	900.157
134.001	198.799	80.058	19.997	100.376	20.012	25.375	0.998	900.148
135.002	199.795	80.057	19.997	100.371	20.025	24.375	0.996	900.170
136.001	200.866	80.057	19.997	100.365	20.029	23.969	1.070	900.166
137.002	201.877	80.058	19.997	100.362	20.044	22.607	1.012	900.129
138.002	202.899	80.060	19.997	100.352	20.058	21.433	1.023	900.131
139.001	203.883	80.059	19.997	100.346	20.073	20.234	0.983	900.119
140.002	204.869	80.056	19.997	100.344	20.088	19.227	0.987	900.136
141.001	205.928	80.056	19.996	100.343	20.103	17.961	1.058	900.121
142.001	206.941	80.053	19.996	100.350	20.120	16.556	1.013	900.136
143.002	207.960	80.054	19.997	100.349	20.132	15.454	1.020	900.144
144.001	208.983	80.058	19.997	100.363	20.144	14.429	1.023	900.121
145.001	209.996	80.055	19.997	100.371	20.161	13.066	1.013	900.133
146.001	211.012	80.056	19.998	100.378	20.174	11.977	1.017	900.142
147.001	212.011	80.055	19.998	100.370	20.188	10.864	0.999	900.134
148.001	213.066	80.057	19.998	100.372	20.193	10.429	1.055	900.145
149.001	214.044	80.057	19.997	100.379	20.203	9.712	0.978	900.146
150.001	215.056	80.057	19.997	100.395	20.215	8.726	1.012	900.121
151.002	216.057	80.056	19.998	100.399	20.223	8.177	1.001	900.110
152.002	217.102	80.057	19.997	100.400	20.226	7.850	1.044	900.146
153.002	218.127	80.055	19.998	100.409	20.232	7.352	1.025	900.147
154.001	219.123	80.057	19.997	100.412	20.238	6.896	0.996	900.146
155.002	220.128	80.059	19.998	100.411	20.244	6.624	1.006	900.114
156.001	221.191	80.055	19.996	100.412	20.244	6.624	1.063	900.148
157.001	222.155	80.056	19.998	100.415	20.245	6.596	0.964	900.110
158.001	223.147	80.057	19.998	100.409	20.250	6.241	0.991	900.123
159.001	224.158	80.057	19.998	100.416	20.253	6.110	1.012	900.114
160.001	225.179	80.059	19.998	100.418	20.252	6.352	1.021	900.103
161.001	226.200	80.056	19.999	100.422	20.251	6.439	1.021	900.090
162.002	227.211	80.057	19.998	100.410	20.255	6.184	1.011	900.097
163.002	228.229	80.058	19.997	100.401	20.255	6.145	1.017	900.114
164.002	229.230	80.057	20.000	100.400	20.255	6.253	1.001	900.123
165.001	230.283	80.059	19.999	100.406	20.257	6.244	1.052	900.105
166.002	231.245	80.055	19.999	100.396	20.260	6.054	0.963	900.110
167.002	232.267	80.055	19.999	100.388	20.258	6.071	1.022	900.122
168.001	233.255	80.056	19.999	100.382	20.257	6.293	0.988	900.085
169.002	234.290	80.054	19.999	100.378	20.259	6.223	1.035	900.091
170.002	235.267	80.052	19.999	100.385	20.256	6.587	0.977	900.094
171.001	236.294	80.058	19.999	100.376	20.256	6.689	1.027	900.123
172.002	237.265	80.058	19.999	100.365	20.260	6.361	0.971	900.136
173.002	238.286	80.058	19.998	100.361	20.259	6.407	1.021	900.109
174.001	239.289	80.056	19.999	100.367	20.262	6.213	1.004	900.126
175.002	240.334	80.058	20.001	100.365	20.262	6.256	1.044	900.115
176.002	241.326	80.059	20.000	100.357	20.263	6.151	0.992	900.129
177.002	242.320	80.056	19.998	100.346	20.265	6.026	0.995	900.090
178.002	243.354	80.055	19.999	100.339	20.266	6.055	1.033	900.091
179.002	244.364	80.055	20.000	100.338	20.268	5.861	1.010	900.140
180.002	245.343	80.055	19.999	100.341	20.270	5.610	0.979	900.091
181.003	246.342	80.052	19.999	100.340	20.270	5.504	0.999	900.097
182.002	247.367	80.053	19.998	100.337	20.273	5.394	1.025	900.105
183.002	248.371	80.053	19.999	100.336	20.274	5.296	1.004	900.091
184.002	249.370	80.056	19.998	100.338	20.274	5.271	1.001	900.104
185.002	250.390	80.054	19.999	100.334	20.278	5.082	1.019	900.088
186.003	251.385	80.056	19.999	100.329	20.279	4.952	0.995	900.081
187.002	252.396	80.055	19.999	100.335	20.276	5.153	1.012	900.106
188.002	253.415	80.054	19.997	100.344	20.281	4.654	1.018	900.087
189.002	254.399	80.052	19.997	100.339	20.282	4.674	0.985	900.118
190.002	255.409	80.053	19.997	100.339	20.281	4.787	1.009	900.101
191.002	256.423	80.057	19.998	100.340	20.285	4.465	1.014	900.128
192.002	257.430	80.054	19.999	100.337	20.282	4.712	1.008	900.099
193.002	258.429	80.055	19.998	100.335	20.284	4.543	0.999	900.069
194.002	259.442	80.056	19.999	100.337	20.282	4.797	1.012	900.108
195.003	260.453	80.056	19.998	100.349	20.290	4.203	1.012	900.067
196.002	261.439	80.055	19.998	100.341	20.284	4.609	0.986	900.085
197.002	262.459	80.054	19.999	100.340	20.285	4.465	1.020	900.071
198.002	263.479	80.056	19.999	100.338	20.281	4.769	1.020	900.096
199.003	264.458	80.056	19.999	100.340	20.282	4.729	0.979	900.113
200.002	265.460	80.054	19.999	100.336	20.280	5.020	1.003	900.104
201.002	266.452	80.053	19.998	100.330	20.279	5.105	0.991	900.113
202.002	267.483	80.056	19.998	100.331	20.274	5.481	1.032	900.102
203.003	268.440	80.057	20.000	100.330	20.273	5.656	0.956	900.108
204.003	269.492	80.058	19.999	100.338	20.268	5.893	1.052	900.113
205.002	270.451	80.055	19.998	100.340	20.266	6.051	0.960	900.068
206.003	271.456	80.057	19.998	100.336	20.262	6.430	1.004	900.081
207.002	272.455	80.058	19.998	100.325	20.259	6.796	1.000	900.102
208.002	273.473	80.055	19.996	100.330	20.256	6.998	1.018	900.080
209.002	274.460	80.057	19.998	100.326	20.255	7.158	0.987	900.144
210.002	275.500	80.054	19.998	100.323	20.251	7.412	1.041	900.109
211.002	276.484	80.058	19.999	100.323	20.243	8.086	0.984	900.091
212.003	277.476	80.053	19.999	100.327	20.235	8.694	0.992	900.099
213.002	278.472	80.054	19.997	100.330	20.224	9.374	0.996	900.115
214.002	279.502	80.056	19.999	100.315	20.221	9.642	1.030	900.083
215.002	280.469	80.053	19.999	100.316	20.213	10.271	0.967	900.117
216.003	281.472	80.053	19.998	100.315	20.203	11.114	1.002	900.102
217.002	282.515	80.053	19.998	100.312	20.194	11.901	1.044	900.101
218.002	283.473	80.053	19.997	100.310	20.186	12.417	0.957	900.073
219.003	284.466	80.054	19.997	100.318	20.173	13.411	0.993	900.096
220.002	285.501	80.055	19.999	100.315	20.165	14.060	1.035	900.100
221.002	286.508	80.052	19.998	100.322	20.153	14.918	1.007	900.079
222.002	287.514	80.054	19.998	100.326	20.142	15.772	1.007	900.113
223.002	288.506	80.055	19.997	100.311	20.131	16.628	0.992	900.083
224.002	289.520	80.055	19.998	100.308	20.119	17.602	1.014	900.120
225.002	290.496	80.057	19.999	100.316	20.105	18.736	0.976	900.114
226.003	291.484	80.055	19.999	100.319	20.092	19.775	0.988	900.118
227.002	292.510	80.055	19.996	100.316	20.075	21.185	1.026	900.125
228.003	293.459	80.056	19.998	100.312	20.061	22.223	0.950	900.118
229.002	294.466	80.056	19.998	100.321	20.052	22.994	1.007	900.131
230.002	295.474	80.055	19.998	100.314	20.038	24.159	1.008	900.087
231.003	296.473	80.058	19.999	100.313	20.025	25.159	0.999	900.118
232.003	297.472	80.056	19.999	100.315	20.014	26.021	0.999	900.099
233.002	298.484	80.056	19.999	100.311	19.999	27.074	1.012	900.072
234.002	299.492	80.054	19.997	100.305	19.990	27.770	1.008	900.084
235.002	300.523	80.051	19.998	100.300	19.974	28.964	1.032	900.087
236.003	301.535	80.056	19.999	100.298	19.966	29.632	1.012	900.097
237.003	302.533	80.055	19.998	100.293	19.957	30.465	0.997	900.079
238.002	303.498	80.056	19.999	100.285	19.946	31.299	0.965	900.088
239.002	304.501	80.054	19.999	100.289	19.933	32.280	1.003	900.115
240.003	305.497	80.055	19.999	100.294	19.922	33.082	0.996	900.084
241.003	306.513	80.055	19.997	100.298	19.918	33.438	1.015	900.104
242.003	307.484	80.054	20.000	100.303	19.909	34.031	0.971	900.087
243.003	308.496	80.053	19.999	100.296	19.901	34.672	1.013	900.089
244.003	309.493	80.056	19.999	100.290	19.890	35.559	0.998	900.107
245.003	310.488	80.055	19.999	100.286	19.886	35.880	0.994	900.069
246.002	311.483	80.053	20.000	100.289	19.873	36.869	0.995	900.073
247.003	312.481	80.055	20.000	100.293	19.867	37.334	0.997	900.126
248.003	313.495	80.054	19.999	100.291	19.857	37.914	1.014	900.088
249.003	314.503	80.056	19.999	100.293	19.854	38.105	1.009	900.075
250.002	315.504	80.055	19.999	100.293	19.848	38.512	1.000	900.067
251.002	316.504	80.054	19.998	100.294	19.840	39.113	1.000	900.105
252.003	317.506	80.057	19.998	100.285	19.829	39.810	1.002	900.089
253.003	318.511	80.056	19.999	100.289	19.822	40.203	1.004	900.094
254.003	319.493	80.053	19.999	100.293	19.803	41.405	0.982	900.084
255.003	320.506	80.052	19.998	100.299	19.790	42.302	1.012	900.075
256.003	321.497	80.055	19.997	100.307	19.779	43.118	0.992	900.107
257.003	322.489	80.053	19.998	100.313	19.762	44.515	0.992	900.096
258.003	323.512	80.055	19.998	100.310	19.741	46.161	1.022	900.103
259.003	324.495	80.054	19.999	100.321	19.716	47.881	0.984	900.089
260.003	325.471	80.053	19.998	100.330	19.693	49.458	0.975	900.079
261.003	326.519	80.055	19.999	100.344	19.665	51.537	1.048	900.075
262.003	327.502	80.054	19.999	100.357	19.635	53.882	0.984	900.075
263.003	328.508	80.055	19.998	100.361	19.602	56.424	1.005	900.076
264.003	329.493	80.053	19.999	100.357	19.560	59.628	0.985	900.098
265.003	330.489	80.054	19.998	100.347	19.518	62.753	0.996	900.084
266.003	331.503	80.054	19.999	100.357	19.478	65.768	1.014	900.111
267.003	332.502	80.054	20.000	100.376	19.427	69.704	0.999	900.088
268.003	333.498	80.055	19.999	100.387	19.377	73.560	0.996	900.086
269.003	334.498	80.053	19.998	100.381	19.320	77.820	1.000	900.075
270.003	335.514	80.053	19.998	100.376	19.261	82.245	1.016	900.093
271.004	336.530	80.053	19.999	100.382	19.203	86.545	1.016	900.095
272.003	337.500	80.053	19.999	100.388	19.139	91.594	0.970	900.102
273.004	338.495	80.054	19.997	100.392	19.071	96.903	0.995	900.084
274.003	339.509	80.054	19.997	100.394	18.999	102.513	1.014	900.090
275.004	340.488	80.052	19.998	100.391	18.925	108.179	0.979	900.120
276.003	341.439	80.055	19.998	100.393	18.852	113.750	0.951	900.110
277.003	342.457	80.054	19.998	100.405	18.775	119.668	1.018	900.084
278.003	343.478	80.055	19.999	100.410	18.695	125.868	1.020	900.108
279.004	344.464	80.055	19.998	100.411	18.612	132.212	0.987	900.071
280.003	345.449	80.053	19.997	100.400	18.528	138.699	0.984	900.103
281.004	346.462	80.052	19.999	100.392	18.442	145.214	1.014	900.108
282.003	347.464	80.054	19.999	100.394	18.354	151.943	1.002	900.123
283.004	348.473	80.054	19.998	100.392	18.264	158.870	1.009	900.140
284.003	349.439	80.055	19.998	100.386	18.174	165.843	0.965	900.093
285.003	350.447	80.055	19.999	100.388	18.082	172.935	1.009	900.119
286.003	351.439	80.053	19.999	100.378	17.989	180.099	0.991	900.081
287.004	352.421	80.056	19.999	100.375	17.897	187.010	0.982	900.092
288.003	353.422	80.054	19.999	100.376	17.804	194.118	1.001	900.116
289.003	354.433	80.056	19.999	100.378	17.708	201.371	1.011	900.123
290.003	355.418	80.055	19.999	100.373	17.618	208.194	0.985	900.112
291.003	356.395	80.053	19.998	100.368	17.527	215.247	0.977	900.122
292.004	357.387	80.055	20.000	100.357	17.441	221.848	0.992	900.146
293.003	358.371	80.053	19.999	100.353	17.349	228.947	0.985	900.103
294.003	359.359	80.058	19.998	100.350	17.258	235.851	0.988	900.145
295.004	360.390	80.054	19.999	100.355	17.174	242.244	1.031	900.179
296.003	361.362	80.052	19.997	100.357	17.090	248.542	0.971	900.127
297.004	362.330	80.055	19.997	100.358	17.008	254.626	0.968	900.115
298.003	363.318	80.057	19.997	100.351	16.932	260.310	0.988	900.128
299.004	364.318	80.056	19.998	100.336	16.857	265.818	1.000	900.121
300.003	365.292	80.053	19.998	100.327	16.790	270.728	0.975	900.136
301.003	366.295	80.057	19.997	100.324	16.724	275.629	1.003	900.122
302.004	367.280	80.055	19.999	100.323	16.662	280.147	0.985	900.144
303.004	368.313	80.056	19.999	100.322	16.594	284.891	1.033	900.127
304.004	369.269	80.057	19.999	100.330	16.530	289.375	0.956	900.147
305.003	370.267	80.057	19.999	100.341	16.465	294.022	0.998	900.154
306.004	371.268	80.057	19.999	100.347	16.405	298.529	1.000	900.140
307.004	372.273	80.056	20.000	100.360	16.334	303.844	1.005	900.154
308.004	373.247	80.055	19.999	100.367	16.241	311.006	0.975	900.125
309.003	374.266	80.055	20.000	100.377	16.149	318.448	1.018	900.156
310.003	375.249	80.052	19.998	100.407	16.080	323.933	0.983	900.127
311.003	376.277	80.052	19.999	100.436	16.017	328.945	1.028	900.173
312.003	377.253	80.057	19.997	100.462	15.957	333.297	0.975	900.196
313.004	378.214	80.056	19.998	100.470	15.898	337.787	0.961	900.161
314.004	379.190	80.054	19.999	100.472	15.884	338.844	0.975	900.142
315.004	380.214	80.052	19.998	100.465	15.891	338.253	1.025	900.124
316.003	381.210	80.054	19.999	100.422	15.874	339.383	0.996	900.137
317.004	382.143	80.057	20.000	100.386	15.849	341.001	0.932	900.149
318.004	383.181	80.054	19.999	100.362	15.831	342.361	1.037	900.152
319.004	384.195	80.053	19.999	100.369	15.811	343.778	1.015	900.132
320.004	385.202	80.054	20.000	100.374	15.812	343.346	1.007	900.130
321.003	386.181	80.054	19.999	100.368	15.837	340.723	0.979	900.135
322.004	387.182	80.052	19.999	100.366	15.835	340.333	1.001	900.149
323.003	388.174	80.054	19.999	100.385	15.821	341.397	0.992	900.127
324.004	389.168	80.055	20.000	100.398	15.820	341.921	0.993	900.148
325.004	390.149	80.054	20.000	100.407	15.831	341.066	0.981	900.153
326.004	391.174	80.053	20.000	100.415	15.780	344.793	1.025	900.141
327.004	392.203	80.051	19.999	100.427	15.730	348.639	1.029	900.144
328.004	393.154	80.055	19.999	100.491	15.762	346.855	0.951	900.158
329.004	394.164	80.056	19.998	100.563	15.816	341.726	1.011	900.165
330.004	395.147	80.052	19.997	100.571	15.875	336.678	0.983	900.173
331.004	396.175	80.054	20.001	100.520	15.899	333.094	1.027	900.151
332.004	397.170	80.053	20.001	100.504	15.876	335.773	0.995	900.170
333.004	398.195	80.055	20.000	100.535	15.921	333.199	1.025	900.173
334.004	399.187	80.052	20.000	100.537	15.998	328.774	0.992	900.191
335.004	400.192	80.049	20.000	100.485	15.923	335.266	1.005	900.162
336.004	401.174	80.051	19.998	100.500	15.922	336.286	0.982	900.193
337.004	402.165	80.052	19.999	100.625	15.903	338.863	0.991	900.200
338.004	403.171	80.052	19.999	100.775	15.967	334.810	1.006	900.144
339.004	404.177	80.056	20.000	100.725	16.121	323.022	1.006	900.195
340.005	405.186	80.054	19.997	100.660	16.277	310.623	1.008	900.174
341.004	406.173	80.056	19.997	100.493	16.437	297.796	0.987	900.184
342.004	407.227	80.053	19.999	100.455	16.616	283.773	1.054	900.197
343.004	408.205	80.053	19.998	100.374	16.777	271.306	0.978	900.187
344.004	409.257	80.056	19.999	100.254	16.911	260.926	1.052	900.190
345.004	410.228	80.053	19.999	100.172	17.045	250.694	0.971	900.203
346.004	411.259	80.050	20.000	100.175	17.184	240.093	1.031	900.191
347.004	412.286	80.054	19.999	100.235	17.331	228.815	1.028	900.212
348.004	413.272	80.055	19.999	100.308	17.490	216.288	0.986	900.222
349.004	414.312	80.053	19.999	100.359	17.665	202.467	1.040	900.203
350.004	415.303	80.054	19.999	100.389	17.846	188.053	0.991	900.194
351.005	416.312	80.054	19.999	100.413	18.029	173.452	1.008	900.230
352.005	417.352	80.052	19.999	100.429	18.201	159.758	1.040	900.180
353.005	418.371	80.050	20.000	100.431	18.365	146.846	1.019	900.181
354.005	419.392	80.051	19.999	100.437	18.517	135.009	1.021	900.207
355.004	420.406	80.055	19.998	100.470	18.666	123.337	1.014	900.186
356.004	421.453	80.053	19.999	100.515	18.811	111.983	1.047	900.212
357.004	422.458	80.054	20.000	100.568	18.949	101.025	1.006	900.210
358.004	423.487	80.055	19.998	100.618	19.069	91.563	1.029	900.225
359.005	424.496	80.057	19.999	100.664	19.184	82.556	1.008	900.211
360.005	425.469	80.055	19.998	100.698	19.294	73.998	0.974	900.236
361.004	426.475	80.051	19.998	100.713	19.393	66.492	1.006	900.265
362.005	427.500	80.049	19.997	100.733	19.484	59.676	1.025	900.226
363.004	428.513	80.052	19.999	100.753	19.573	53.009	1.014	900.224
364.004	429.511	80.052	20.000	100.775	19.647	47.603	0.997	900.231
365.005	430.509	80.052	19.999	100.798	19.721	42.115	0.998	900.274
366.005	431.497	80.054	19.999	100.805	19.787	37.344	0.989	900.244
367.005	432.526	80.052	19.999	100.817	19.850	32.840	1.029	900.238
368.005	433.571	80.053	19.998	100.809	19.908	28.743	1.045	900.278
369.004	434.550	80.052	19.999	100.800	19.957	25.254	0.979	900.247
370.004	435.535	80.055	19.999	100.782	20.002	22.097	0.985	900.243
371.004	436.540	80.055	19.999	100.768	20.040	19.545	1.004	900.283
372.005	437.538	80.054	20.000	100.750	20.080	16.733	0.999	900.257
373.004	438.519	80.056	20.000	100.728	20.111	14.580	0.981	900.288
374.005	439.526	80.057	20.000	100.702	20.140	12.669	1.007	900.278
375.005	440.507	80.054	20.000	100.675	20.167	11.019	0.981	900.251
376.005	441.545	80.053	19.999	100.655	20.194	9.362	1.037	900.273
377.005	442.507	80.056	19.999	100.634	20.209	8.499	0.962	900.239
378.005	443.510	80.051	19.999	100.610	20.230	7.163	1.003	900.250
379.005	444.504	80.054	19.998	100.584	20.246	6.112	0.994	900.274
380.005	445.529	80.051	19.998	100.566	20.266	4.924	1.025	900.261
381.005	446.474	80.052	19.999	100.550	20.276	4.420	0.945	900.253
382.005	447.508	80.051	19.998	100.521	20.289	3.714	1.034	900.249
383.004	448.526	80.055	19.998	100.488	20.298	3.293	1.019	900.264
384.004	449.523	80.055	19.999	100.467	20.307	2.761	0.996	900.255
385.005	450.491	80.055	19.998	100.453	20.322	1.777	0.968	900.288
386.005	451.480	80.053	19.997	100.433	20.323	1.803	0.989	900.259
387.006	452.502	80.052	19.998	100.408	20.328	1.625	1.022	900.274
388.005	453.498	80.054	19.997	100.392	20.338	0.850	0.996	900.264
389.005	454.519	80.054	19.997	100.368	20.342	0.632	1.021	900.278
390.005	455.500	80.055	19.996	100.356	20.346	0.428	0.981	900.284
391.005	456.490	80.053	19.995	100.339	20.349	0.225	0.990	900.273
392.005	457.505	80.056	19.997	100.331	20.357	-0.307	1.015	900.274
393.005	458.495	80.056	19.997	100.322	20.361	-0.455	0.991	900.264
394.005	459.456	80.055	19.996	100.311	20.364	-0.562	0.960	900.311
395.005	460.476	80.055	19.998	100.304	20.370	-0.980	1.020	900.276
396.005	461.449	80.055	19.998	100.300	20.369	-0.864	0.974	900.262
397.005	462.466	80.055	19.998	100.295	20.372	-1.008	1.016	900.287
398.004	463.455	80.056	19.999	100.291	20.373	-1.043	0.989	900.271
399.005	464.460	80.055	19.998	100.287	20.375	-0.961	1.005	900.295
400.004	465.439	80.056	19.997	100.282	20.374	-0.999	0.979	900.304
401.005	466.447	80.055	19.998	100.265	20.377	-1.186	1.008	900.305
402.005	467.436	80.056	19.998	100.259	20.379	-1.350	0.989	900.312
403.005	468.441	80.056	19.997	100.263	20.378	-1.218	1.004	900.279
404.006	469.439	80.056	19.998	100.260	20.379	-1.279	0.998	900.317
405.005	470.430	80.055	19.997	100.249	20.377	-1.111	0.992	900.330
406.005	471.434	80.054	19.998	100.238	20.380	-1.395	1.003	900.289
407.005	472.440	80.054	19.998	100.244	20.384	-1.614	1.006	900.319
408.005	473.429	80.056	19.998	100.240	20.384	-1.558	0.989	900.314
409.005	474.424	80.056	19.999	100.242	20.385	-1.586	0.994	900.297
410.005	475.410	80.055	19.997	100.235	20.383	-1.457	0.986	900.355
411.005	476.423	80.055	19.999	100.234	20.382	-1.416	1.014	900.312
412.005	477.430	80.056	19.998	100.237	20.386	-1.660	1.006	900.326
413.006	478.409	80.056	20.000	100.238	20.381	-1.365	0.978	900.347
414.005	479.392	80.054	19.997	100.236	20.382	-1.497	0.984	900.341
415.005	480.397	80.054	19.998	100.229	20.380	-1.320	1.006	900.311
416.005	481.389	80.053	19.997	100.225	20.384	-1.624	0.992	900.362
417.005	482.398	80.058	19.998	100.227	20.384	-1.637	1.008	900.378
418.005	483.387	80.055	19.997	100.226	20.384	-1.594	0.990	900.356
419.005	484.383	80.058	19.997	100.225	20.382	-1.452	0.996	900.348
420.006	485.367	80.060	19.999	100.232	20.384	-1.594	0.984	900.364
421.005	486.359	80.061	19.998	100.236	20.384	-1.587	0.992	900.383
422.005	487.351	80.060	19.999	100.235	20.382	-1.376	0.992	900.387
423.005	488.360	80.059	19.998	100.234	20.377	-0.896	1.009	900.390
424.005	489.334	80.062	19.998	100.235	20.384	-1.392	0.973	900.377
425.006	490.342	80.058	19.997	100.235	20.384	-1.315	1.008	900.401
426.006	491.341	80.060	19.998	100.233	20.385	-1.510	0.999	900.401
427.005	492.338	80.059	19.999	100.234	20.384	-1.499	0.997	900.382
428.005	493.378	80.060	19.997	100.234	20.388	-1.817	1.041	900.413
429.006	494.342	80.056	19.998	100.227	20.387	-1.675	0.962	900.420
430.006	495.346	80.057	19.999	100.216	20.388	-1.690	1.004	900.445
431.006	496.370	80.060	19.997	100.215	20.388	-1.775	1.025	900.437
432.006	497.370	80.058	19.999	100.211	20.386	-1.724	0.999	900.463
433.006	498.342	80.057	19.998	100.217	20.386	-1.667	0.973	900.425
434.007	499.323	80.057	19.999	100.221	20.390	-1.826	0.980	900.436
435.005	500.334	80.057	19.998	100.225	20.388	-1.698	1.012	900.421
436.006	501.320	80.057	19.999	100.220	20.386	-1.479	0.985	900.436
437.006	502.304	80.057	19.999	100.217	20.387	-1.599	0.983	900.436
438.006	503.291	80.057	19.999	100.223	20.387	-1.497	0.988	900.457
439.006	504.340	80.059	19.999	100.228	20.388	-1.547	1.050	900.474
440.005	505.283	80.056	19.998	100.226	20.383	-1.213	0.942	900.476
441.006	506.315	80.056	19.998	100.216	20.385	-1.438	1.032	900.466
442.005	507.281	80.059	19.998	100.213	20.386	-1.601	0.966	900.460
443.006	508.276	80.059	19.999	100.212	20.387	-1.617	0.994	900.485
444.005	509.251	80.057	19.998	100.216	20.388	-1.589	0.976	900.459
445.006	510.292	80.053	19.999	100.212	20.388	-1.524	1.040	900.448
446.006	511.288	80.054	19.998	100.208	20.389	-1.668	0.996	900.455
447.006	512.287	80.059	19.999	100.210	20.388	-1.632	0.999	900.460
448.005	513.311	80.055	19.998	100.216	20.389	-1.758	1.025	900.491
449.005	514.304	80.058	19.997	100.220	20.388	-1.621	0.994	900.476
450.005	515.292	80.058	19.997	100.220	20.391	-1.745	0.987	900.495
451.006	516.281	80.058	19.998	100.210	20.390	-1.640	0.989	900.505
452.006	517.288	80.055	19.998	100.200	20.389	-1.468	1.007	900.515
453.005	518.267	80.056	19.998	100.207	20.390	-1.589	0.979	900.506
454.005	519.258	80.056	19.999	100.212	20.386	-1.352	0.991	900.499
455.006	520.269	80.056	19.998	100.214	20.390	-1.730	1.010	900.478
456.006	521.276	80.056	19.999	100.211	20.389	-1.741	1.007	900.537
457.006	522.269	80.056	19.997	100.206	20.388	-1.711	0.994	900.508
458.006	523.277	80.058	19.998	100.203	20.389	-1.776	1.008	900.501
459.006	524.244	80.055	19.999	100.202	20.389	-1.704	0.967	900.494
460.005	525.270	80.055	19.997	100.199	20.388	-1.616	1.026	900.529
461.006	526.248	80.055	19.997	100.199	20.390	-1.858	0.978	900.524
462.006	527.254	80.056	19.998	100.208	20.392	-2.076	1.005	900.512
463.006	528.244	80.056	20.000	100.214	20.391	-1.971	0.991	900.538
464.006	529.237	80.058	19.999	100.218	20.388	-1.590	0.991	900.535
465.007	530.246	80.056	19.998	100.216	20.391	-1.847	1.010	900.552
466.006	531.265	80.058	19.998	100.208	20.389	-1.640	1.018	900.544
467.006	532.240	80.059	19.998	100.210	20.388	-1.581	0.975	900.554
468.006	533.228	80.058	19.997	100.216	20.389	-1.584	0.989	900.543
469.006	534.206	80.060	19.998	100.222	20.392	-1.805	0.978	900.548
470.006	535.224	80.057	20.000	100.220	20.389	-1.499	1.018	900.551
471.006	536.206	80.056	19.999	100.212	20.395	-1.917	0.982	900.534
472.006	537.192	80.055	19.998	100.210	20.388	-1.380	0.985	900.553
473.006	538.218	80.056	19.997	100.205	20.389	-1.417	1.026	900.546
474.007	539.225	80.057	19.998	100.208	20.391	-1.499	1.007	900.540
475.006	540.192	80.054	19.997	100.207	20.386	-1.154	0.967	900.550
476.007	541.219	80.054	19.998	100.205	20.390	-1.572	1.026	900.521
477.006	542.189	80.054	19.998	100.197	20.395	-2.045	0.971	900.567
478.007	543.200	80.054	19.998	100.194	20.393	-1.914	1.011	900.542
479.006	544.182	80.052	19.998	100.194	0.000	0.000	0.982	900.569
480.007	545.191	80.056	19.997	100.194	0.000	0.000	1.009	900.566
481.006	546.198	80.052	19.998	100.190	0.000	0.000	1.007	900.566
482.006	547.184	80.053	19.998	100.189	0.000	0.000	0.986	900.583
483.006	548.203	80.056	19.996	100.200	0.000	0.000	1.020	900.560
484.006	549.176	80.056	19.997	100.204	0.000	0.000	0.973	900.561
485.006	550.200	80.059	19.997	100.204	0.000	0.000	1.023	900.546
486.007	551.213	80.058	19.997	100.200	0.000	0.000	1.014	900.576
487.006	552.196	80.058	20.000	100.201	0.000	0.000	0.983	900.583
488.007	553.194	80.056	19.999	100.200	0.000	0.000	0.998	900.585
488.506	553.677	80.055	19.998	100.197	0.000	0.000	1.016	900.584