File: Experiments/FZJ/MCC/raw/20240905_PMMA_DE_6mm_60Kmin_4mg_R3.txt
File Name:	PMMA_DE_6mm_60Kmin_4mg_R3.txt
Version: 8.3.7.3
Date:	05 Sep 2024
Operator:	KH
Test ID:	PMMA_DE_6mm_4mg_60K_R3
Sample ID:	PMMA_DE_6mm_4mg
Sample Mass (mg):	4.0900
Sample Cup Mass (mg):	186.2800
End Total Mass (mg):	0.0000
Heating Rate (C/s):	1.0000
Combuster Temperature (C):	900.0
N2 Flow Rate (cc/min):	80.0
O2 Flow Rate (cc/min):	20.0
Calibration File:	Coeff.txt
T Correction Coefficients:	0.308739	0.0136155	0.000000000
Time Shift (s):	10.0
Pre-Test Comments:
Post-Test Comments:
Baseline Flow:	100.240
Baseline O2:	20.196
Instrument ID:
@
Time (s)	Temperature (C)	N2 Flow (cc/min)	O2 Flow (cc/min)	Total Flow (cc/min)	Oxygen (%)	HRR (W/g)	Heating Rate (C/s)	Combustor Temp (C)
0.000	74.967	80.017	19.978	100.240	20.184	-8.399	0.048	900.482
0.999	74.971	80.016	19.977	100.243	20.144	-5.212	0.005	900.466
1.999	75.029	80.015	19.978	100.291	20.111	-2.615	0.057	900.455
2.999	75.069	80.019	19.979	100.474	20.095	-1.286	0.040	900.426
3.999	75.199	80.017	19.979	100.723	20.084	-0.376	0.131	900.449
5.000	75.306	80.016	19.979	100.880	20.079	-0.217	0.107	900.412
6.000	75.526	80.015	19.979	100.920	20.078	-2.649	0.220	900.400
7.000	75.718	80.018	19.979	100.905	20.076	-6.437	0.191	900.393
8.000	75.975	80.016	19.978	100.895	20.074	-10.323	0.257	900.383
8.999	76.255	80.019	19.978	100.887	20.077	-12.130	0.280	900.433
9.999	76.536	80.018	19.979	100.886	20.070	-11.375	0.280	900.423
10.999	76.809	80.018	19.977	100.875	20.034	-7.542	0.273	900.405
11.999	77.126	80.015	19.976	100.866	19.971	-1.447	0.317	900.405
13.000	77.539	80.016	19.977	100.979	19.933	2.621	0.412	900.362
13.999	78.011	80.018	19.977	101.269	19.919	4.849	0.472	900.381
15.000	78.573	80.017	19.976	101.594	19.918	5.989	0.562	900.381
15.999	79.167	80.017	19.977	101.744	19.934	5.884	0.594	900.380
17.000	79.880	80.016	19.976	101.747	19.944	5.999	0.713	900.334
18.000	80.566	80.014	19.976	101.674	19.954	5.981	0.686	900.356
18.999	81.378	80.017	19.976	101.580	19.973	5.056	0.812	900.338
19.999	82.156	80.017	19.976	101.491	19.984	4.723	0.778	900.344
21.000	82.968	80.016	19.978	101.417	19.998	4.206	0.812	900.356
21.999	83.819	80.018	19.977	101.342	20.008	4.024	0.850	900.357
23.000	84.725	80.015	19.975	101.255	20.017	3.700	0.906	900.291
24.000	85.610	80.014	19.977	101.187	20.027	3.212	0.885	900.277
25.000	86.552	80.013	19.977	101.138	20.032	3.005	0.943	900.273
25.999	87.513	80.014	19.976	101.096	20.042	2.514	0.961	900.300
27.000	88.457	80.017	19.977	101.064	20.049	2.217	0.943	900.289
27.999	89.434	80.013	19.977	101.027	20.053	2.161	0.978	900.287
29.000	90.417	80.013	19.976	100.983	20.059	1.966	0.983	900.264
30.000	91.422	80.016	19.976	100.953	20.062	1.991	1.004	900.273
31.000	92.442	80.013	19.977	100.932	20.069	1.569	1.020	900.262
31.999	93.451	80.013	19.977	100.919	20.071	1.436	1.009	900.235
32.999	94.463	80.013	19.976	100.905	20.073	1.281	1.012	900.232
34.000	95.516	80.016	19.976	100.886	20.074	1.401	1.054	900.266
34.999	96.596	80.017	19.975	100.864	20.082	0.979	1.080	900.259
36.000	97.606	80.015	19.975	100.851	20.085	0.908	1.009	900.281
36.999	98.607	80.013	19.975	100.828	20.084	1.067	1.002	900.213
38.000	99.665	80.015	19.977	100.817	20.087	0.862	1.058	900.252
39.000	100.729	80.017	19.977	100.819	20.088	0.676	1.065	900.242
39.999	101.757	80.015	19.976	100.819	20.095	0.234	1.029	900.233
41.000	102.806	80.014	19.976	100.805	20.094	0.338	1.048	900.220
42.000	103.873	80.014	19.977	100.794	20.095	0.428	1.067	900.207
43.000	104.932	80.014	19.976	100.780	20.100	0.166	1.059	900.208
44.000	105.996	80.012	19.976	100.773	20.103	0.106	1.064	900.196
44.999	107.083	80.014	19.976	100.770	20.099	0.490	1.086	900.188
46.000	108.105	80.017	19.976	100.777	20.103	0.221	1.023	900.214
46.999	109.178	80.019	19.975	100.778	20.105	0.111	1.073	900.186
48.000	110.256	80.016	19.975	100.769	20.107	-0.107	1.078	900.203
49.000	111.313	80.015	19.976	100.763	20.113	-0.498	1.057	900.183
50.000	112.404	80.015	19.975	100.753	20.110	-0.186	1.090	900.187
51.000	113.468	80.013	19.976	100.740	20.109	-0.060	1.064	900.155
52.000	114.530	80.016	19.976	100.734	20.111	-0.290	1.062	900.133
53.000	115.582	80.016	19.978	100.727	20.110	-0.144	1.053	900.145
54.000	116.671	80.016	19.976	100.729	20.108	0.226	1.088	900.135
55.000	117.730	80.018	19.976	100.735	20.111	0.137	1.059	900.130
56.001	118.786	80.019	19.976	100.735	20.112	-0.057	1.056	900.151
57.000	119.871	80.018	19.977	100.722	20.113	-0.235	1.086	900.144
58.000	120.949	80.019	19.977	100.718	20.110	-0.010	1.077	900.141
59.000	121.993	80.017	19.977	100.726	20.114	-0.273	1.044	900.107
60.000	123.042	80.018	19.977	100.721	20.112	-0.026	1.048	900.106
61.000	124.102	80.018	19.977	100.709	20.111	0.054	1.061	900.121
62.000	125.142	80.013	19.975	100.694	20.110	0.304	1.040	900.085
63.000	126.200	80.014	19.976	100.698	20.110	0.372	1.057	900.113
64.000	127.267	80.013	19.975	100.711	20.110	0.592	1.067	900.096
65.000	128.305	80.015	19.976	100.709	20.110	0.567	1.038	900.102
66.000	129.353	80.017	19.977	100.705	20.105	0.928	1.048	900.104
67.001	130.438	80.016	19.976	100.703	20.106	0.742	1.084	900.087
68.000	131.482	80.019	19.976	100.702	20.110	0.429	1.044	900.084
69.000	132.552	80.016	19.976	100.691	20.108	0.695	1.070	900.031
70.000	133.599	80.014	19.977	100.683	20.103	1.165	1.047	900.054
71.000	134.652	80.016	19.976	100.671	20.100	1.403	1.053	900.036
72.000	135.716	80.017	19.977	100.667	20.103	1.083	1.063	900.053
73.000	136.730	80.015	19.976	100.665	20.100	1.232	1.015	900.057
74.000	137.801	80.016	19.977	100.675	20.095	1.605	1.071	900.034
75.000	138.856	80.015	19.977	100.681	20.099	1.343	1.056	900.018
76.000	139.872	80.019	19.976	100.672	20.098	1.599	1.016	900.016
77.000	140.914	80.016	19.978	100.664	20.090	2.274	1.041	900.000
78.000	141.942	80.016	19.977	100.662	20.085	2.746	1.029	900.013
79.000	143.016	80.019	19.977	100.666	20.087	2.587	1.073	900.015
80.000	144.029	80.019	19.976	100.673	20.085	2.672	1.013	899.986
81.000	145.065	80.017	19.977	100.681	20.085	2.550	1.037	900.032
82.000	146.128	80.017	19.976	100.674	20.084	2.615	1.063	900.011
83.000	147.164	80.016	19.977	100.665	20.084	2.688	1.036	899.982
84.000	148.223	80.016	19.976	100.661	20.083	2.797	1.059	899.977
85.000	149.220	80.016	19.977	100.649	20.080	3.134	0.997	899.978
86.000	150.237	80.017	19.976	100.648	20.073	3.647	1.016	899.985
87.001	151.265	80.019	19.976	100.654	20.075	3.515	1.028	899.969
88.000	152.311	80.018	19.977	100.661	20.069	4.032	1.046	899.960
89.001	153.349	80.016	19.977	100.666	20.069	4.093	1.038	899.970
90.000	154.376	80.017	19.976	100.664	20.068	4.231	1.028	899.960
91.000	155.401	80.016	19.977	100.655	20.062	4.745	1.024	899.935
92.001	156.425	80.019	19.976	100.652	20.060	4.763	1.024	899.951
93.000	157.447	80.016	19.976	100.653	20.054	5.067	1.022	899.945
94.001	158.474	80.018	19.977	100.650	20.051	5.266	1.027	899.925
95.000	159.538	80.020	19.976	100.646	20.052	5.272	1.064	899.907
96.000	160.529	80.015	19.977	100.646	20.049	5.546	0.992	899.949
97.001	161.555	80.013	19.976	100.635	20.042	6.122	1.025	899.890
98.001	162.571	80.017	19.976	100.629	20.036	6.449	1.017	899.917
99.001	163.643	80.019	19.977	100.633	20.028	7.043	1.071	899.916
100.000	164.658	80.018	19.976	100.652	20.024	7.360	1.016	899.901
101.000	165.647	80.019	19.976	100.660	20.014	8.265	0.989	899.901
102.001	166.669	80.018	19.977	100.651	20.008	8.743	1.021	899.917
103.001	167.703	80.019	19.977	100.646	19.999	9.501	1.034	899.894
104.000	168.725	80.017	19.976	100.643	19.990	10.179	1.023	899.879
105.000	169.726	80.016	19.978	100.649	19.983	10.893	1.001	899.873
106.001	170.782	80.019	19.977	100.652	19.970	11.831	1.055	899.843
107.001	171.751	80.019	19.976	100.655	19.959	12.755	0.970	899.901
108.000	172.796	80.017	19.975	100.645	19.950	13.335	1.045	899.852
109.001	173.810	80.017	19.976	100.640	19.942	13.899	1.014	899.885
110.001	174.833	80.018	19.976	100.636	19.928	14.963	1.022	899.868
111.001	175.872	80.017	19.976	100.635	19.920	15.654	1.040	899.852
112.000	176.892	80.016	19.974	100.625	19.905	16.872	1.019	899.844
113.001	177.902	80.017	19.976	100.622	19.894	17.775	1.011	899.862
114.000	178.905	80.020	19.975	100.617	19.884	18.613	1.003	899.822
115.001	179.991	80.016	19.976	100.623	19.871	19.610	1.085	899.860
116.001	180.983	80.018	19.978	100.628	19.865	20.259	0.992	899.835
117.001	181.980	80.019	19.978	100.634	19.854	21.047	0.998	899.847
118.000	183.005	80.019	19.977	100.623	19.843	21.966	1.023	899.855
119.001	184.018	80.019	19.978	100.617	19.832	22.818	1.014	899.828
120.002	185.050	80.017	19.977	100.614	19.824	23.543	1.031	899.784
121.001	186.069	80.017	19.976	100.609	19.816	24.072	1.020	899.792
122.001	187.049	80.015	19.976	100.606	19.810	24.482	0.980	899.789
123.001	188.087	80.015	19.975	100.595	19.800	25.427	1.038	899.778
124.001	189.126	80.017	19.976	100.595	19.799	25.707	1.039	899.768
125.000	190.090	80.017	19.975	100.594	19.798	25.918	0.964	899.784
126.000	191.110	80.016	19.977	100.589	19.798	25.860	1.020	899.800
127.001	192.129	80.016	19.977	100.579	19.791	26.333	1.018	899.797
128.001	193.158	80.017	19.977	100.583	19.792	26.440	1.030	899.784
129.001	194.168	80.017	19.975	100.592	19.795	26.298	1.010	899.769
130.001	195.203	80.016	19.975	100.579	19.797	26.252	1.034	899.772
131.001	196.221	80.017	19.975	100.563	19.806	25.502	1.019	899.749
132.000	197.225	80.016	19.975	100.554	19.811	25.253	1.005	899.780
133.000	198.232	80.018	19.976	100.555	19.818	24.769	1.006	899.765
134.000	199.242	80.018	19.975	100.559	19.830	23.764	1.010	899.758
135.001	200.256	80.013	19.974	100.552	19.841	22.812	1.013	899.741
136.001	201.292	80.015	19.974	100.537	19.850	22.087	1.037	899.760
137.001	202.322	80.015	19.974	100.533	19.862	21.221	1.030	899.747
138.001	203.336	80.016	19.974	100.540	19.880	19.884	1.015	899.769
139.001	204.354	80.017	19.975	100.531	19.896	18.766	1.017	899.722
140.001	205.358	80.015	19.975	100.518	19.907	17.947	1.004	899.751
141.001	206.384	80.017	19.976	100.526	19.921	16.754	1.026	899.732
142.001	207.410	80.014	19.974	100.540	19.935	15.481	1.026	899.720
143.000	208.442	80.015	19.975	100.542	19.949	14.310	1.032	899.731
144.001	209.437	80.018	19.976	100.539	19.968	12.681	0.995	899.744
145.001	210.453	80.016	19.976	100.539	19.976	12.009	1.015	899.699
146.001	211.451	80.014	19.975	100.533	19.994	10.669	0.998	899.692
147.001	212.470	80.018	19.974	100.528	20.001	10.278	1.020	899.754
148.001	213.500	80.019	19.974	100.534	20.015	9.199	1.030	899.717
149.001	214.505	80.018	19.974	100.553	20.030	7.996	1.005	899.709
150.001	215.513	80.017	19.975	100.564	20.037	7.340	1.008	899.698
151.001	216.516	80.018	19.974	100.570	20.044	6.704	1.003	899.696
152.000	217.550	80.018	19.976	100.579	20.051	6.104	1.034	899.682
153.001	218.585	80.016	19.976	100.579	20.061	5.394	1.035	899.684
154.000	219.602	80.016	19.975	100.568	20.065	5.080	1.018	899.666
155.001	220.536	80.019	19.976	100.571	20.066	5.090	0.933	899.657
156.001	221.586	80.013	19.975	100.573	20.067	5.141	1.051	899.653
157.001	222.605	80.014	19.975	100.581	20.069	4.958	1.017	899.673
158.002	223.629	80.013	19.975	100.594	20.072	4.896	1.024	899.681
159.001	224.625	80.014	19.976	100.597	20.072	5.021	0.996	899.676
160.001	225.649	80.017	19.977	100.592	20.074	4.955	1.025	899.667
161.001	226.655	80.017	19.977	100.593	20.072	5.012	1.005	899.641
162.002	227.692	80.015	19.977	100.591	20.073	4.933	1.036	899.655
163.002	228.662	80.017	19.977	100.578	20.074	4.895	0.971	899.646
164.001	229.659	80.017	19.976	100.579	20.072	5.152	0.997	899.654
165.001	230.689	80.016	19.975	100.571	20.071	5.441	1.030	899.638
166.002	231.687	80.019	19.977	100.567	20.072	5.445	0.997	899.622
167.002	232.667	80.020	19.976	100.552	20.074	5.416	0.981	899.616
168.001	233.670	80.017	19.976	100.558	20.073	5.367	1.003	899.620
169.002	234.664	80.016	19.977	100.560	20.074	5.349	0.994	899.623
170.002	235.691	80.017	19.977	100.557	20.072	5.543	1.027	899.611
171.002	236.701	80.015	19.976	100.553	20.074	5.477	1.010	899.600
172.002	237.718	80.017	19.978	100.538	20.077	5.211	1.018	899.625
173.001	238.711	80.015	19.977	100.529	20.076	5.193	0.993	899.603
174.001	239.728	80.015	19.977	100.519	20.075	5.312	1.018	899.624
175.001	240.752	80.016	19.976	100.526	20.072	5.578	1.023	899.597
176.001	241.768	80.017	19.977	100.531	20.077	5.180	1.016	899.592
177.001	242.746	80.019	19.978	100.524	20.077	5.126	0.978	899.645
178.001	243.756	80.016	19.976	100.519	20.079	5.007	1.010	899.618
179.002	244.740	80.018	19.976	100.518	20.081	4.817	0.984	899.582
180.001	245.741	80.016	19.976	100.523	20.082	4.707	1.001	899.594
181.002	246.754	80.017	19.976	100.523	20.083	4.706	1.013	899.589
182.001	247.783	80.020	19.977	100.517	20.083	4.852	1.029	899.543
183.002	248.789	80.019	19.976	100.523	20.087	4.742	1.005	899.574
184.001	249.776	80.016	19.976	100.524	20.086	4.802	0.987	899.546
185.001	250.792	80.015	19.977	100.522	20.088	4.487	1.016	899.569
186.002	251.792	80.014	19.976	100.527	20.090	4.221	1.000	899.555
187.001	252.787	80.016	19.977	100.530	20.093	4.064	0.996	899.547
188.002	253.822	80.017	19.977	100.524	20.097	3.927	1.034	899.553
189.001	254.824	80.016	19.977	100.518	20.091	4.268	1.002	899.569
190.002	255.853	80.018	19.976	100.502	20.093	4.048	1.029	899.540
191.002	256.849	80.019	19.977	100.494	20.093	4.068	0.996	899.549
192.002	257.847	80.018	19.977	100.506	20.094	4.041	0.997	899.552
193.001	258.862	80.021	19.978	100.522	20.093	4.110	1.016	899.533
194.001	259.824	80.016	19.978	100.516	20.096	3.937	0.963	899.546
195.001	260.849	80.017	19.977	100.504	20.095	4.057	1.024	899.576
196.001	261.850	80.017	19.976	100.506	20.098	3.831	1.001	899.534
197.002	262.883	80.018	19.977	100.516	20.091	4.235	1.032	899.534
198.001	263.854	80.021	19.977	100.518	20.091	4.179	0.972	899.544
199.001	264.846	80.021	19.976	100.512	20.089	4.289	0.992	899.582
200.002	265.879	80.018	19.976	100.510	20.090	4.203	1.032	899.523
201.002	266.852	80.019	19.977	100.510	20.085	4.584	0.974	899.538
202.001	267.884	80.022	19.977	100.502	20.085	4.573	1.031	899.549
203.002	268.875	80.021	19.976	100.500	20.081	4.875	0.992	899.532
204.001	269.886	80.019	19.976	100.512	20.079	5.155	1.011	899.529
205.001	270.865	80.021	19.978	100.519	20.075	5.511	0.980	899.582
206.002	271.861	80.022	19.977	100.519	20.073	5.761	0.995	899.530
207.002	272.870	80.020	19.977	100.522	20.065	6.200	1.008	899.499
208.001	273.890	80.023	19.977	100.525	20.065	6.270	1.020	899.491
209.002	274.847	80.025	19.978	100.520	20.059	6.783	0.957	899.504
210.002	275.873	80.022	19.977	100.523	20.054	7.307	1.026	899.507
211.002	276.896	80.021	19.979	100.519	20.047	7.745	1.023	899.516
212.002	277.889	80.021	19.977	100.509	20.042	7.946	0.993	899.505
213.001	278.891	80.023	19.977	100.502	20.036	8.220	1.003	899.516
214.002	279.889	80.020	19.976	100.514	20.026	8.928	0.997	899.484
215.002	280.879	80.023	19.977	100.511	20.017	9.707	0.990	899.496
216.002	281.875	80.019	19.978	100.507	20.010	10.412	0.996	899.466
217.001	282.875	80.019	19.977	100.496	20.000	11.180	1.000	899.516
218.002	283.882	80.020	19.978	100.497	19.994	11.587	1.007	899.447
219.002	284.901	80.018	19.978	100.511	19.985	12.219	1.019	899.486
220.001	285.907	80.023	19.979	100.523	19.970	13.490	1.006	899.455
221.003	286.914	80.024	19.978	100.530	19.960	14.303	1.006	899.463
222.002	287.877	80.023	19.979	100.531	19.947	15.309	0.964	899.444
223.001	288.899	80.020	19.978	100.514	19.934	16.288	1.022	899.450
224.002	289.895	80.021	19.978	100.505	19.920	17.358	0.996	899.454
225.001	290.929	80.021	19.977	100.516	19.906	18.459	1.034	899.464
226.003	291.915	80.022	19.977	100.521	19.893	19.605	0.986	899.450
227.002	292.878	80.020	19.977	100.510	19.880	20.620	0.963	899.425
228.002	293.938	80.021	19.977	100.502	19.870	21.472	1.060	899.448
229.003	294.883	80.020	19.976	100.498	19.854	22.647	0.945	899.426
230.002	295.907	80.018	19.976	100.503	19.839	23.846	1.024	899.419
231.001	296.924	80.023	19.976	100.503	19.825	24.978	1.018	899.439
232.002	297.882	80.020	19.976	100.498	19.812	25.968	0.957	899.394
233.003	298.902	80.020	19.978	100.489	19.801	26.714	1.021	899.403
234.002	299.900	80.020	19.976	100.484	19.786	27.687	0.998	899.372
235.002	300.931	80.019	19.975	100.481	19.775	28.609	1.031	899.411
236.002	301.926	80.019	19.975	100.480	19.767	29.359	0.995	899.399
237.002	302.909	80.018	19.977	100.483	19.751	30.585	0.984	899.384
238.002	303.927	80.018	19.977	100.475	19.740	31.397	1.018	899.390
239.001	304.906	80.019	19.977	100.471	19.731	32.164	0.979	899.415
240.002	305.914	80.019	19.976	100.479	19.722	32.912	1.008	899.388
241.002	306.922	80.019	19.977	100.490	19.711	33.752	1.008	899.372
242.001	307.920	80.022	19.977	100.487	19.702	34.351	0.998	899.339
243.002	308.922	80.019	19.976	100.475	19.695	34.764	1.001	899.367
244.002	309.938	80.020	19.978	100.469	19.687	35.442	1.016	899.378
245.002	310.878	80.018	19.977	100.473	19.680	35.966	0.940	899.368
246.002	311.916	80.019	19.976	100.473	19.674	36.424	1.039	899.374
247.002	312.918	80.019	19.976	100.461	19.665	36.968	1.003	899.379
248.001	313.915	80.020	19.977	100.459	19.659	37.483	0.997	899.345
249.002	314.887	80.018	19.977	100.468	19.652	38.119	0.971	899.343
250.002	315.915	80.018	19.977	100.473	19.638	39.038	1.028	899.341
251.003	316.904	80.019	19.975	100.473	19.633	39.158	0.989	899.390
252.002	317.896	80.018	19.976	100.469	19.622	39.842	0.992	899.330
253.002	318.891	80.019	19.975	100.467	19.612	40.409	0.995	899.343
254.002	319.924	80.019	19.975	100.483	19.599	41.331	1.032	899.373
255.002	320.916	80.020	19.977	100.478	19.585	42.217	0.992	899.368
256.002	321.935	80.017	19.976	100.470	19.571	43.194	1.019	899.354
257.002	322.915	80.018	19.976	100.474	19.550	44.628	0.980	899.334
258.002	323.912	80.020	19.977	100.493	19.530	45.966	0.998	899.346
259.001	324.923	80.017	19.977	100.512	19.504	47.861	1.011	899.324
260.002	325.907	80.018	19.976	100.517	19.476	49.800	0.984	899.345
261.001	326.894	80.018	19.977	100.528	19.442	52.316	0.986	899.370
262.003	327.926	80.021	19.977	100.537	19.411	54.517	1.031	899.346
263.002	328.913	80.020	19.976	100.545	19.375	57.075	0.988	899.355
264.002	329.913	80.022	19.977	100.557	19.333	60.213	1.000	899.341
265.003	330.920	80.020	19.977	100.562	19.288	63.618	1.007	899.353
266.002	331.915	80.019	19.979	100.572	19.240	67.308	0.996	899.349
267.002	332.934	80.020	19.978	100.585	19.187	71.281	1.018	899.358
268.003	333.884	80.019	19.977	100.589	19.133	75.359	0.950	899.379
269.003	334.901	80.022	19.977	100.594	19.074	79.971	1.016	899.335
270.002	335.884	80.019	19.977	100.611	19.012	84.574	0.984	899.298
271.002	336.873	80.015	19.975	100.619	18.953	88.912	0.990	899.310
272.002	337.903	80.016	19.976	100.615	18.884	94.021	1.029	899.320
273.002	338.873	80.018	19.977	100.612	18.815	99.249	0.971	899.324
274.003	339.900	80.017	19.976	100.617	18.741	104.870	1.026	899.327
275.003	340.886	80.014	19.975	100.615	18.666	110.502	0.986	899.298
276.003	341.890	80.016	19.976	100.603	18.592	116.136	1.005	899.341
277.003	342.875	80.018	19.977	100.601	18.510	122.315	0.985	899.342
278.003	343.875	80.018	19.977	100.612	18.426	128.660	1.000	899.338
279.002	344.922	80.018	19.976	100.624	18.343	135.030	1.048	899.344
280.003	345.885	80.021	19.976	100.626	18.254	141.764	0.963	899.344
281.003	346.890	80.017	19.975	100.622	18.168	148.320	1.005	899.314
282.002	347.870	80.018	19.976	100.617	18.084	154.551	0.979	899.312
283.003	348.841	80.016	19.977	100.615	17.990	161.574	0.971	899.310
284.002	349.876	80.017	19.977	100.614	17.898	168.389	1.035	899.340
285.003	350.881	80.018	19.976	100.613	17.808	175.129	1.004	899.325
286.003	351.846	80.018	19.976	100.606	17.715	182.012	0.965	899.327
287.003	352.864	80.018	19.977	100.596	17.624	188.799	1.018	899.336
288.002	353.830	80.019	19.977	100.590	17.530	195.938	0.966	899.357
289.003	354.836	80.019	19.977	100.592	17.442	202.640	1.005	899.307
290.003	355.847	80.019	19.976	100.600	17.345	209.988	1.012	899.349
291.003	356.838	80.019	19.977	100.603	17.256	216.751	0.991	899.349
292.002	357.797	80.018	19.976	100.599	17.166	223.433	0.959	899.338
293.002	358.785	80.020	19.977	100.609	17.071	230.535	0.988	899.311
294.003	359.823	80.019	19.978	100.610	16.988	236.769	1.037	899.314
295.003	360.792	80.019	19.977	100.608	16.906	242.866	0.970	899.302
296.002	361.763	80.020	19.977	100.597	16.823	249.060	0.971	899.310
297.003	362.797	80.020	19.977	100.587	16.746	254.793	1.034	899.329
298.002	363.791	80.018	19.977	100.577	16.671	260.430	0.994	899.355
299.002	364.762	80.017	19.977	100.572	16.603	265.517	0.971	899.329
300.003	365.757	80.019	19.978	100.571	16.534	270.450	0.995	899.328
301.003	366.771	80.019	19.977	100.570	16.468	275.034	1.014	899.365
302.002	367.769	80.019	19.977	100.572	16.408	279.158	0.997	899.349
303.003	368.766	80.018	19.976	100.571	16.348	283.357	0.998	899.348
304.003	369.751	80.019	19.977	100.568	16.285	287.859	0.984	899.315
305.002	370.747	80.019	19.978	100.564	16.223	292.319	0.997	899.340
306.003	371.740	80.017	19.976	100.558	16.158	296.986	0.993	899.332
307.003	372.729	80.018	19.975	100.567	16.074	303.313	0.989	899.320
308.002	373.745	80.017	19.976	100.592	15.991	309.773	1.016	899.351
309.002	374.734	80.016	19.977	100.629	15.919	315.550	0.988	899.316
310.003	375.689	80.015	19.976	100.652	15.846	321.227	0.955	899.361
311.003	376.682	80.018	19.977	100.665	15.782	326.137	0.994	899.339
312.002	377.653	80.018	19.977	100.675	15.734	329.770	0.970	899.320
313.003	378.691	80.016	19.977	100.695	15.713	331.214	1.038	899.321
314.002	379.665	80.013	19.975	100.697	15.716	330.710	0.974	899.345
315.002	380.674	80.015	19.976	100.669	15.721	330.130	1.008	899.326
316.003	381.662	80.014	19.976	100.626	15.700	331.364	0.988	899.364
317.003	382.640	80.016	19.976	100.593	15.681	332.743	0.977	899.337
318.003	383.651	80.017	19.976	100.584	15.648	335.069	1.011	899.359
319.003	384.637	80.013	19.977	100.571	15.623	337.225	0.987	899.351
320.003	385.641	80.013	19.977	100.569	15.615	337.996	1.004	899.318
321.003	386.605	80.012	19.977	100.588	15.600	339.072	0.964	899.339
322.002	387.640	80.013	19.977	100.628	15.543	343.203	1.036	899.363
323.002	388.636	80.018	19.977	100.645	15.541	343.354	0.996	899.343
324.003	389.651	80.015	19.978	100.653	15.595	339.346	1.014	899.359
325.003	390.661	80.016	19.978	100.673	15.659	334.290	1.011	899.374
326.003	391.646	80.016	19.977	100.646	15.684	332.033	0.985	899.359
327.003	392.647	80.018	19.977	100.623	15.675	332.644	1.001	899.336
328.003	393.643	80.017	19.975	100.615	15.681	332.302	0.996	899.356
329.003	394.650	80.019	19.976	100.639	15.713	330.022	1.008	899.370
330.003	395.622	80.016	19.977	100.631	15.731	327.593	0.972	899.381
331.003	396.616	80.016	19.975	100.626	15.720	327.980	0.993	899.374
332.003	397.643	80.016	19.976	100.649	15.767	324.533	1.028	899.374
333.003	398.684	80.015	19.978	100.698	15.837	320.138	1.041	899.386
334.003	399.662	80.016	19.977	100.718	15.854	319.262	0.978	899.351
335.003	400.653	80.016	19.976	100.689	15.836	320.956	0.991	899.393
336.003	401.655	80.017	19.976	100.691	15.685	333.445	1.002	899.384
337.004	402.653	80.015	19.976	100.758	15.743	330.694	0.998	899.363
338.003	403.715	80.017	19.976	100.838	15.887	320.867	1.062	899.402
339.003	404.669	80.017	19.977	100.842	15.977	314.173	0.954	899.372
340.003	405.660	80.016	19.976	100.750	16.100	304.731	0.992	899.383
341.002	406.689	80.016	19.977	100.726	16.269	292.333	1.028	899.390
342.003	407.682	80.015	19.976	100.704	16.445	279.205	0.994	899.379
343.003	408.699	80.015	19.977	100.616	16.583	268.670	1.017	899.383
344.003	409.679	80.015	19.978	100.446	16.711	258.829	0.979	899.370
345.003	410.711	80.017	19.977	100.338	16.847	248.570	1.032	899.350
346.003	411.705	80.015	19.976	100.351	16.983	238.497	0.995	899.392
347.003	412.752	80.013	19.977	100.393	17.126	227.715	1.047	899.391
348.003	413.793	80.015	19.977	100.380	17.282	215.722	1.041	899.367
349.003	414.756	80.014	19.976	100.376	17.456	202.159	0.963	899.397
350.003	415.817	80.019	19.978	100.409	17.644	187.466	1.062	899.388
351.003	416.826	80.017	19.977	100.440	17.836	172.547	1.008	899.399
352.003	417.828	80.015	19.976	100.460	18.025	157.846	1.001	899.402
353.004	418.870	80.016	19.977	100.458	18.205	143.815	1.043	899.383
354.003	419.887	80.016	19.978	100.463	18.373	130.806	1.017	899.414
355.003	420.895	80.016	19.978	100.483	18.528	118.724	1.008	899.402
356.003	421.923	80.017	19.978	100.535	18.675	107.352	1.029	899.420
357.002	422.944	80.016	19.977	100.588	18.812	96.673	1.021	899.406
358.003	423.914	80.017	19.978	100.635	18.937	87.054	0.969	899.397
359.003	424.963	80.017	19.978	100.674	19.055	77.976	1.049	899.405
360.004	425.948	80.018	19.977	100.712	19.159	70.087	0.985	899.413
361.003	426.977	80.021	19.978	100.747	19.263	62.217	1.028	899.391
362.003	427.958	80.018	19.978	100.779	19.351	55.625	0.982	899.451
363.003	428.963	80.015	19.976	100.804	19.435	49.390	1.005	899.425
364.003	429.971	80.018	19.976	100.827	19.510	43.894	1.007	899.410
365.002	430.968	80.020	19.976	100.846	19.579	38.842	0.998	899.419
366.002	431.957	80.020	19.976	100.857	19.643	34.265	0.989	899.421
367.003	432.970	80.020	19.975	100.860	19.698	30.380	1.013	899.430
368.003	433.976	80.018	19.975	100.862	19.751	26.740	1.005	899.414
369.004	434.966	80.017	19.975	100.854	19.800	23.323	0.990	899.423
370.003	435.955	80.015	19.974	100.845	19.843	20.342	0.989	899.412
371.003	436.964	80.015	19.975	100.830	19.875	18.176	1.010	899.447
372.003	437.981	80.020	19.975	100.819	19.911	15.620	1.016	899.417
373.004	439.014	80.016	19.975	100.802	19.942	13.475	1.034	899.466
374.003	439.993	80.017	19.974	100.780	19.974	11.289	0.979	899.416
375.004	440.993	80.017	19.975	100.752	19.998	9.717	1.000	899.432
376.003	442.002	80.019	19.976	100.730	20.024	8.061	1.010	899.457
377.003	442.973	80.018	19.975	100.710	20.043	6.979	0.971	899.466
378.003	443.984	80.019	19.976	100.691	20.062	5.861	1.011	899.443
379.003	444.984	80.019	19.976	100.675	20.073	5.255	1.000	899.470
380.003	446.001	80.022	19.977	100.663	20.093	3.849	1.017	899.492
381.003	446.975	80.022	19.977	100.649	20.107	2.911	0.974	899.496
382.004	447.963	80.021	19.976	100.630	20.116	2.390	0.987	899.516
383.003	448.973	80.020	19.976	100.607	20.131	1.624	1.011	899.480
384.004	449.972	80.017	19.976	100.581	20.140	0.960	0.998	899.475
385.004	450.962	80.018	19.975	100.557	20.153	0.087	0.991	899.510
386.004	451.963	80.018	19.976	100.541	20.158	-0.256	1.001	899.531
387.003	452.985	80.020	19.977	100.527	20.165	-0.484	1.021	899.519
388.004	453.941	80.020	19.975	100.525	20.175	-1.030	0.957	899.506
389.004	454.953	80.019	19.976	100.513	20.177	-1.057	1.012	899.473
390.004	455.938	80.018	19.977	100.493	20.181	-1.131	0.984	899.511
391.003	456.965	80.020	19.977	100.477	20.183	-1.218	1.027	899.515
392.005	457.928	80.019	19.976	100.479	20.185	-1.393	0.963	899.557
393.003	458.934	80.021	19.976	100.476	20.188	-1.592	1.007	899.543
394.003	459.943	80.022	19.976	100.452	20.189	-1.466	1.009	899.515
395.004	460.927	80.019	19.976	100.440	20.195	-1.831	0.983	899.545
396.004	461.937	80.021	19.976	100.433	20.196	-1.867	1.011	899.529
397.003	462.929	80.018	19.977	100.415	20.194	-1.668	0.991	899.520
398.004	463.963	80.019	19.977	100.406	20.197	-1.809	1.034	899.542
399.003	464.947	80.022	19.975	100.406	20.195	-1.542	0.984	899.536
400.003	465.952	80.021	19.976	100.407	20.195	-1.451	1.005	899.568
401.004	466.941	80.019	19.976	100.394	20.195	-1.366	0.989	899.581
402.003	467.932	80.019	19.976	100.385	20.194	-1.267	0.990	899.587
403.004	468.953	80.020	19.975	100.383	20.195	-1.330	1.021	899.524
404.003	469.915	80.020	19.976	100.382	20.196	-1.406	0.963	899.600
405.003	470.926	80.020	19.977	100.376	20.198	-1.677	1.010	899.598
406.003	471.928	80.020	19.977	100.366	20.196	-1.573	1.003	899.558
407.003	472.898	80.022	19.976	100.362	20.201	-1.945	0.970	899.583
408.003	473.910	80.019	19.977	100.355	20.202	-2.024	1.012	899.586
409.003	474.903	80.019	19.977	100.350	20.197	-1.564	0.993	899.610
410.004	475.884	80.020	19.976	100.347	20.199	-1.503	0.981	899.609
411.004	476.883	80.021	19.978	100.352	20.199	-1.317	0.999	899.584
412.003	477.883	80.023	19.977	100.359	20.201	-1.506	1.000	899.609
413.004	478.927	80.020	19.976	100.359	20.200	-1.630	1.044	899.595
414.004	479.901	80.020	19.976	100.362	20.201	-1.642	0.974	899.626
415.004	480.919	80.022	19.976	100.362	20.203	-1.745	1.018	899.616
416.004	481.901	80.020	19.976	100.358	20.201	-1.595	0.981	899.645
417.003	482.908	80.017	19.977	100.346	20.200	-1.484	1.007	899.656
418.003	483.862	80.019	19.976	100.327	20.199	-1.436	0.954	899.642
419.004	484.852	80.020	19.976	100.328	20.200	-1.432	0.989	899.645
420.004	485.876	80.022	19.975	100.341	20.200	-1.383	1.024	899.475
421.003	486.867	80.021	19.975	100.343	20.202	-1.595	0.992	899.623
422.003	487.849	80.019	19.977	100.335	20.199	-1.454	0.982	899.573
423.003	488.881	80.020	19.976	100.334	20.202	-1.757	1.032	899.635
424.003	489.901	80.018	19.976	100.338	20.202	-1.647	1.020	899.658
425.003	490.872	80.019	19.977	100.336	20.203	-1.677	0.970	899.649
426.004	491.874	80.021	19.977	100.331	20.202	-1.566	1.003	899.645
427.003	492.879	80.021	19.976	100.332	20.198	-1.323	1.004	899.668
428.004	493.865	80.021	19.976	100.330	20.199	-1.354	0.986	899.651
429.005	494.866	80.020	19.975	100.336	20.201	-1.536	1.000	899.646
430.004	495.872	80.021	19.976	100.343	20.201	-1.546	1.007	899.665
431.004	496.870	80.019	19.976	100.337	20.203	-1.653	0.999	899.673
432.004	497.870	80.019	19.975	100.335	20.204	-1.639	0.999	899.681
433.003	498.850	80.017	19.976	100.334	20.204	-1.741	0.981	899.694
434.004	499.849	80.017	19.976	100.332	20.205	-1.694	0.998	899.659
435.004	500.812	80.016	19.975	100.327	20.206	-1.816	0.965	899.682
436.003	501.820	80.016	19.976	100.335	20.204	-1.602	1.008	899.658
437.005	502.821	80.022	19.976	100.333	20.203	-1.567	1.000	899.679
438.004	503.833	80.017	19.976	100.330	20.204	-1.582	1.013	899.661
439.004	504.814	80.017	19.977	100.328	20.204	-1.689	0.981	899.708
440.004	505.787	80.018	19.976	100.327	20.204	-1.725	0.973	899.697
441.004	506.799	80.018	19.977	100.326	20.205	-1.856	1.012	899.696
442.004	507.761	80.020	19.975	100.331	20.205	-1.845	0.962	899.689
443.005	508.780	80.015	19.976	100.319	20.204	-1.708	1.019	899.694
444.004	509.811	80.019	19.976	100.322	20.204	-1.639	1.032	899.682
445.003	510.819	80.020	19.976	100.323	20.204	-1.731	1.008	899.710
446.004	511.806	80.020	19.976	100.325	20.203	-1.719	0.986	899.710
447.005	512.818	80.021	19.977	100.327	20.207	-2.100	1.012	899.743
448.004	513.804	80.023	19.976	100.336	20.204	-1.750	0.987	899.738
449.004	514.791	80.022	19.975	100.337	20.204	-1.649	0.986	899.715
450.004	515.768	80.024	19.975	100.331	20.204	-1.548	0.978	899.729
451.004	516.779	80.021	19.975	100.324	20.204	-1.690	1.010	899.753
452.004	517.785	80.024	19.975	100.326	20.204	-1.750	1.007	899.775
453.004	518.804	80.025	19.975	100.333	20.208	-1.940	1.019	899.757
454.004	519.778	80.022	19.976	100.343	20.209	-1.964	0.974	899.765
455.005	520.791	80.021	19.976	100.337	20.208	-1.939	1.013	899.800
456.004	521.793	80.024	19.976	100.323	20.207	-1.984	1.003	899.780
457.004	522.793	80.021	19.976	100.314	20.206	-1.858	0.999	899.829
458.005	523.771	80.020	19.976	100.325	20.207	-1.900	0.977	899.816
459.004	524.781	80.023	19.976	100.333	20.207	-1.730	1.011	899.786
460.004	525.780	80.021	19.975	100.327	20.204	-1.545	0.999	899.803
461.005	526.756	80.022	19.976	100.318	20.207	-1.790	0.976	899.817
462.005	527.787	80.022	19.975	100.322	20.207	-1.805	1.031	899.817
463.005	528.761	80.022	19.976	100.329	20.208	-1.931	0.974	899.798
464.005	529.778	80.023	19.976	100.332	20.206	-1.830	1.018	899.864
465.004	530.745	80.023	19.975	100.327	20.208	-1.874	0.967	899.840
466.004	531.787	80.021	19.976	100.317	20.210	-2.054	1.041	899.834
467.004	532.798	80.021	19.976	100.317	20.210	-1.975	1.011	899.822
468.005	533.760	80.022	19.975	100.318	20.210	-1.924	0.962	899.864
469.004	534.777	80.019	19.976	100.319	20.208	-1.709	1.017	899.865
470.004	535.756	80.020	19.976	100.323	20.207	-1.772	0.980	899.871
471.005	536.758	80.018	19.975	100.328	20.207	-1.851	1.002	899.871
472.004	537.772	80.022	19.976	100.321	20.205	-1.767	1.013	899.898
473.005	538.757	80.022	19.975	100.322	20.206	-1.882	0.986	899.880
474.005	539.773	80.021	19.974	100.316	20.206	-1.817	1.016	899.905
475.005	540.749	80.023	19.975	100.314	20.208	-1.857	0.976	899.906
476.005	541.745	80.022	19.975	100.307	20.206	-1.664	0.996	899.930
477.005	542.733	80.022	19.974	100.314	20.206	-1.653	0.989	899.903
478.005	543.727	80.023	19.974	100.323	20.209	-1.872	0.994	899.923
479.005	544.738	80.022	19.975	100.326	0.000	0.000	1.011	899.940
480.004	545.726	80.020	19.976	100.330	0.000	0.000	0.989	899.933
481.005	546.736	80.019	19.974	100.326	0.000	0.000	1.009	899.951
482.005	547.710	80.020	19.975	100.320	0.000	0.000	0.975	899.950
483.004	548.755	80.019	19.976	100.313	0.000	0.000	1.045	899.955
484.005	549.714	80.019	19.976	100.313	0.000	0.000	0.958	899.957
485.004	550.745	80.017	19.975	100.320	0.000	0.000	1.033	899.983
486.005	551.724	80.020	19.976	100.314	0.000	0.000	0.978	899.960
487.005	552.710	80.021	19.975	100.307	0.000	0.000	0.986	899.965
488.004	553.696	80.022	19.974	100.302	0.000	0.000	0.986	899.993